subject,run_name,task,stimulus_set,TRIAL,beta_index,beta_number,target_number,target_code,target_name,repeat,image_path,SOURCE_FILE,RUN_NAME,SUBJECT,SESSION,RUN,CONDITION,CUE,FRAMEFILE,IMAGEFILE,GROUNDTRUTH,ISCORRECT,CHANGEMIND,TOTAL1,TOTAL2,BUTTON,TRIALONSET,TRIALEND,IMAGEONSET,IMAGESERIESENDS,FINALDECISIONTIME,RT
subj01,visA,vision,A,1,0,1,4,L,bar_135.0deg_450L_43W.png,1,/home/jovyan/NHprojectNSDimagery/data/nsd/nsddata/experiments/nsdimagery/rawtargetimages/setA/bar_135.0deg_450L_43W.png,nsdimagery_subj01_visA.tsv,visA,1,1,1,L,L,bar_135.0deg_450L_43W_cueL.png,,1.0,1.0,0.0,1,0,1.0,11.9977394189991,15.9986126990007,,,12.973612627,975.873208000849
subj01,visA,vision,A,2,1,2,3,V,bar_090.0deg_450L_43W.png,1,/home/jovyan/NHprojectNSDimagery/data/nsd/nsddata/experiments/nsdimagery/rawtargetimages/setA/bar_090.0deg_450L_43W.png,nsdimagery_subj01_visA.tsv,visA,1,1,1,V,V,bar_090.0deg_450L_43W_cueV.png,,1.0,1.0,0.0,1,0,1.0,15.9986126990007,19.9983569409997,,,16.7080173210015,709.404622000875
subj01,visA,vision,A,3,2,3,1,H,bar_000.0deg_450L_43W.png,1,/home/jovyan/NHprojectNSDimagery/data/nsd/nsddata/experiments/nsdimagery/rawtargetimages/setA/bar_000.0deg_450L_43W.png,nsdimagery_subj01_visA.tsv,visA,1,1,1,H,H,bar_000.0deg_450L_43W_cueH.png,,1.0,1.0,0.0,1,0,1.0,19.9983569409997,23.9978940069996,,,20.7002976080003,701.940667000599
subj01,visA,vision,A,4,3,4,3,V,bar_090.0deg_450L_43W.png,2,/home/jovyan/NHprojectNSDimagery/data/nsd/nsddata/experiments/nsdimagery/rawtargetimages/setA/bar_090.0deg_450L_43W.png,nsdimagery_subj01_visA.tsv,visA,1,1,1,V,P,bar_090.0deg_450L_43W_cueP.png,,0.0,1.0,0.0,0,1,2.0,23.9978940069996,27.9974614070015,,,24.908093263999,910.199256999476
subj01,visA,vision,A,5,4,5,4,L,bar_135.0deg_450L_43W.png,2,/home/jovyan/NHprojectNSDimagery/data/nsd/nsddata/experiments/nsdimagery/rawtargetimages/setA/bar_135.0deg_450L_43W.png,nsdimagery_subj01_visA.tsv,visA,1,1,1,L,R,bar_135.0deg_450L_43W_cueR.png,,0.0,1.0,1.0,1,3,2.0,27.9974614070015,31.9982887189981,,,29.2852384549988,1287.77704799722
subj01,visA,vision,A,6,5,6,2,R,bar_045.0deg_450L_43W.png,1,/home/jovyan/NHprojectNSDimagery/data/nsd/nsddata/experiments/nsdimagery/rawtargetimages/setA/bar_045.0deg_450L_43W.png,nsdimagery_subj01_visA.tsv,visA,1,1,1,R,P,bar_045.0deg_450L_43W_cueP.png,,0.0,1.0,0.0,0,1,2.0,31.9982887189981,35.9967549139983,,,33.520803419,1522.51470000192
subj01,visA,vision,A,7,6,7,6,E,crs_045.0deg_450L_43W.png,1,/home/jovyan/NHprojectNSDimagery/data/nsd/nsddata/experiments/nsdimagery/rawtargetimages/setA/crs_045.0deg_450L_43W.png,nsdimagery_subj01_visA.tsv,visA,1,1,1,E,E,crs_045.0deg_450L_43W_cueE.png,,1.0,1.0,0.0,1,0,1.0,35.9967549139983,39.9972766819992,,,36.7320131999986,735.258286000317
subj01,visA,vision,A,8,7,8,4,L,bar_135.0deg_450L_43W.png,3,/home/jovyan/NHprojectNSDimagery/data/nsd/nsddata/experiments/nsdimagery/rawtargetimages/setA/bar_135.0deg_450L_43W.png,nsdimagery_subj01_visA.tsv,visA,1,1,1,L,R,bar_135.0deg_450L_43W_cueR.png,,0.0,1.0,0.0,0,1,2.0,39.9972766819992,43.9964145339982,,,41.0904336929998,1093.15701100059
subj01,visA,vision,A,9,8,9,5,P,crs_000.0deg_450L_43W.png,1,/home/jovyan/NHprojectNSDimagery/data/nsd/nsddata/experiments/nsdimagery/rawtargetimages/setA/crs_000.0deg_450L_43W.png,nsdimagery_subj01_visA.tsv,visA,1,1,1,P,L,crs_000.0deg_450L_43W_cueL.png,,0.0,1.0,0.0,0,1,2.0,47.9974374209996,51.9964151409986,,,49.0230563929981,1025.61897199848
subj01,visA,vision,A,10,9,10,6,E,crs_045.0deg_450L_43W.png,2,/home/jovyan/NHprojectNSDimagery/data/nsd/nsddata/experiments/nsdimagery/rawtargetimages/setA/crs_045.0deg_450L_43W.png,nsdimagery_subj01_visA.tsv,visA,1,1,1,E,V,crs_045.0deg_450L_43W_cueV.png,,0.0,1.0,0.0,0,1,2.0,51.9964151409986,55.9956253769997,,,52.8413789240003,844.963783001731
subj01,visA,vision,A,11,10,11,1,H,bar_000.0deg_450L_43W.png,2,/home/jovyan/NHprojectNSDimagery/data/nsd/nsddata/experiments/nsdimagery/rawtargetimages/setA/bar_000.0deg_450L_43W.png,nsdimagery_subj01_visA.tsv,visA,1,1,1,H,H,bar_000.0deg_450L_43W_cueH.png,,1.0,1.0,0.0,1,0,1.0,55.9956253769997,59.9964641679981,,,56.7242552089992,728.629831999569
subj01,visA,vision,A,12,11,12,5,P,crs_000.0deg_450L_43W.png,2,/home/jovyan/NHprojectNSDimagery/data/nsd/nsddata/experiments/nsdimagery/rawtargetimages/setA/crs_000.0deg_450L_43W.png,nsdimagery_subj01_visA.tsv,visA,1,1,1,P,P,crs_000.0deg_450L_43W_cueP.png,,1.0,1.0,0.0,1,0,1.0,59.9964641679981,63.9957802860008,,,60.6833768819997,686.912714001664
subj01,visA,vision,A,13,12,13,4,L,bar_135.0deg_450L_43W.png,4,/home/jovyan/NHprojectNSDimagery/data/nsd/nsddata/experiments/nsdimagery/rawtargetimages/setA/bar_135.0deg_450L_43W.png,nsdimagery_subj01_visA.tsv,visA,1,1,1,L,L,bar_135.0deg_450L_43W_cueL.png,,1.0,1.0,0.0,1,0,1.0,63.9957802860008,67.9960314499986,,,64.7706619790006,774.88169299977
subj01,visA,vision,A,14,13,14,5,P,crs_000.0deg_450L_43W.png,3,/home/jovyan/NHprojectNSDimagery/data/nsd/nsddata/experiments/nsdimagery/rawtargetimages/setA/crs_000.0deg_450L_43W.png,nsdimagery_subj01_visA.tsv,visA,1,1,1,P,E,crs_000.0deg_450L_43W_cueE.png,,0.0,1.0,0.0,0,1,2.0,67.9960314499986,71.9947610749987,,,68.8216545040013,825.62305400279
subj01,visA,vision,A,15,14,15,1,H,bar_000.0deg_450L_43W.png,3,/home/jovyan/NHprojectNSDimagery/data/nsd/nsddata/experiments/nsdimagery/rawtargetimages/setA/bar_000.0deg_450L_43W.png,nsdimagery_subj01_visA.tsv,visA,1,1,1,H,L,bar_000.0deg_450L_43W_cueL.png,,0.0,1.0,0.0,0,1,2.0,71.9947610749987,75.9949559650013,,,72.8263257889994,831.564714000706
subj01,visA,vision,A,16,15,16,3,V,bar_090.0deg_450L_43W.png,3,/home/jovyan/NHprojectNSDimagery/data/nsd/nsddata/experiments/nsdimagery/rawtargetimages/setA/bar_090.0deg_450L_43W.png,nsdimagery_subj01_visA.tsv,visA,1,1,1,V,V,bar_090.0deg_450L_43W_cueV.png,,1.0,1.0,0.0,1,0,1.0,79.9949592919984,83.9942288070015,,,80.7314360130003,736.476721001964
subj01,visA,vision,A,17,16,17,5,P,crs_000.0deg_450L_43W.png,4,/home/jovyan/NHprojectNSDimagery/data/nsd/nsddata/experiments/nsdimagery/rawtargetimages/setA/crs_000.0deg_450L_43W.png,nsdimagery_subj01_visA.tsv,visA,1,1,1,P,P,crs_000.0deg_450L_43W_cueP.png,,1.0,1.0,0.0,1,0,1.0,83.9942288070015,87.9946070459991,,,84.6276490499986,633.42024299709
subj01,visA,vision,A,18,17,18,2,R,bar_045.0deg_450L_43W.png,2,/home/jovyan/NHprojectNSDimagery/data/nsd/nsddata/experiments/nsdimagery/rawtargetimages/setA/bar_045.0deg_450L_43W.png,nsdimagery_subj01_visA.tsv,visA,1,1,1,R,R,bar_045.0deg_450L_43W_cueR.png,,1.0,1.0,0.0,1,0,1.0,87.9946070459991,91.9947490769991,,,88.6996568709983,705.049824999151
subj01,visA,vision,A,19,18,19,1,H,bar_000.0deg_450L_43W.png,4,/home/jovyan/NHprojectNSDimagery/data/nsd/nsddata/experiments/nsdimagery/rawtargetimages/setA/bar_000.0deg_450L_43W.png,nsdimagery_subj01_visA.tsv,visA,1,1,1,H,H,bar_000.0deg_450L_43W_cueH.png,,1.0,1.0,0.0,1,0,1.0,91.9947490769991,95.9943442469994,,,92.6227748400015,628.02576300237
subj01,visA,vision,A,20,19,20,3,V,bar_090.0deg_450L_43W.png,4,/home/jovyan/NHprojectNSDimagery/data/nsd/nsddata/experiments/nsdimagery/rawtargetimages/setA/bar_090.0deg_450L_43W.png,nsdimagery_subj01_visA.tsv,visA,1,1,1,V,H,bar_090.0deg_450L_43W_cueH.png,,0.0,1.0,0.0,0,1,2.0,95.9943442469994,99.9935816789985,,,96.7821496100005,787.805363001098
subj01,visA,vision,A,21,20,21,5,P,crs_000.0deg_450L_43W.png,5,/home/jovyan/NHprojectNSDimagery/data/nsd/nsddata/experiments/nsdimagery/rawtargetimages/setA/crs_000.0deg_450L_43W.png,nsdimagery_subj01_visA.tsv,visA,1,1,1,P,V,crs_000.0deg_450L_43W_cueV.png,,0.0,1.0,0.0,0,1,2.0,99.9935816789985,103.994267421,,,100.904670977001,911.08929800248
subj01,visA,vision,A,22,21,22,1,H,bar_000.0deg_450L_43W.png,5,/home/jovyan/NHprojectNSDimagery/data/nsd/nsddata/experiments/nsdimagery/rawtargetimages/setA/bar_000.0deg_450L_43W.png,nsdimagery_subj01_visA.tsv,visA,1,1,1,H,L,bar_000.0deg_450L_43W_cueL.png,,0.0,1.0,0.0,0,1,2.0,103.994267421,107.993676889,,,104.747422543001,753.155122001772
subj01,visA,vision,A,23,22,23,2,R,bar_045.0deg_450L_43W.png,3,/home/jovyan/NHprojectNSDimagery/data/nsd/nsddata/experiments/nsdimagery/rawtargetimages/setA/bar_045.0deg_450L_43W.png,nsdimagery_subj01_visA.tsv,visA,1,1,1,R,R,bar_045.0deg_450L_43W_cueR.png,,1.0,1.0,0.0,1,0,1.0,111.993169924001,115.993361706998,,,113.517999041,1524.82911699917
subj01,visA,vision,A,24,23,24,6,E,crs_045.0deg_450L_43W.png,3,/home/jovyan/NHprojectNSDimagery/data/nsd/nsddata/experiments/nsdimagery/rawtargetimages/setA/crs_045.0deg_450L_43W.png,nsdimagery_subj01_visA.tsv,visA,1,1,1,E,V,crs_045.0deg_450L_43W_cueV.png,,0.0,1.0,0.0,0,1,2.0,115.993361706998,119.992892385999,,,116.717459279,724.097572001483
subj01,visA,vision,A,25,24,25,1,H,bar_000.0deg_450L_43W.png,6,/home/jovyan/NHprojectNSDimagery/data/nsd/nsddata/experiments/nsdimagery/rawtargetimages/setA/bar_000.0deg_450L_43W.png,nsdimagery_subj01_visA.tsv,visA,1,1,1,H,L,bar_000.0deg_450L_43W_cueL.png,,0.0,1.0,0.0,0,1,2.0,119.992892385999,123.992479253,,,120.647434328999,654.541943000368
subj01,visA,vision,A,26,25,26,2,R,bar_045.0deg_450L_43W.png,4,/home/jovyan/NHprojectNSDimagery/data/nsd/nsddata/experiments/nsdimagery/rawtargetimages/setA/bar_045.0deg_450L_43W.png,nsdimagery_subj01_visA.tsv,visA,1,1,1,R,R,bar_045.0deg_450L_43W_cueR.png,,1.0,1.0,0.0,1,0,1.0,123.992479253,127.992116873,,,124.544770815999,552.291562999017
subj01,visA,vision,A,27,26,27,6,E,crs_045.0deg_450L_43W.png,4,/home/jovyan/NHprojectNSDimagery/data/nsd/nsddata/experiments/nsdimagery/rawtargetimages/setA/crs_045.0deg_450L_43W.png,nsdimagery_subj01_visA.tsv,visA,1,1,1,E,E,crs_045.0deg_450L_43W_cueE.png,,1.0,1.0,0.0,1,0,1.0,127.992116873,131.990949161001,,,128.672780104,680.663230999926
subj01,visA,vision,A,28,27,28,4,L,bar_135.0deg_450L_43W.png,5,/home/jovyan/NHprojectNSDimagery/data/nsd/nsddata/experiments/nsdimagery/rawtargetimages/setA/bar_135.0deg_450L_43W.png,nsdimagery_subj01_visA.tsv,visA,1,1,1,L,L,bar_135.0deg_450L_43W_cueL.png,,1.0,1.0,0.0,1,0,1.0,131.990949161001,135.990469413999,,,132.642478668,651.529506998486
subj01,visA,vision,A,29,28,29,1,H,bar_000.0deg_450L_43W.png,7,/home/jovyan/NHprojectNSDimagery/data/nsd/nsddata/experiments/nsdimagery/rawtargetimages/setA/bar_000.0deg_450L_43W.png,nsdimagery_subj01_visA.tsv,visA,1,1,1,H,E,bar_000.0deg_450L_43W_cueE.png,,0.0,1.0,0.0,0,1,2.0,135.990469413999,139.990433507999,,,136.732047635,741.578221000964
subj01,visA,vision,A,30,29,30,4,L,bar_135.0deg_450L_43W.png,6,/home/jovyan/NHprojectNSDimagery/data/nsd/nsddata/experiments/nsdimagery/rawtargetimages/setA/bar_135.0deg_450L_43W.png,nsdimagery_subj01_visA.tsv,visA,1,1,1,L,P,bar_135.0deg_450L_43W_cueP.png,,0.0,1.0,0.0,0,1,2.0,139.990433507999,143.990836171,,,140.826172981,835.739473001013
subj01,visA,vision,A,31,30,31,2,R,bar_045.0deg_450L_43W.png,5,/home/jovyan/NHprojectNSDimagery/data/nsd/nsddata/experiments/nsdimagery/rawtargetimages/setA/bar_045.0deg_450L_43W.png,nsdimagery_subj01_visA.tsv,visA,1,1,1,R,P,bar_045.0deg_450L_43W_cueP.png,,0.0,1.0,0.0,0,1,2.0,143.990836171,147.9905827,,,144.801657641001,810.821470000519
subj01,visA,vision,A,32,31,32,3,V,bar_090.0deg_450L_43W.png,5,/home/jovyan/NHprojectNSDimagery/data/nsd/nsddata/experiments/nsdimagery/rawtargetimages/setA/bar_090.0deg_450L_43W.png,nsdimagery_subj01_visA.tsv,visA,1,1,1,V,V,bar_090.0deg_450L_43W_cueV.png,,1.0,1.0,0.0,1,0,1.0,147.9905827,151.99074112,,,148.671851636998,681.268936998094
subj01,visA,vision,A,33,32,33,6,E,crs_045.0deg_450L_43W.png,5,/home/jovyan/NHprojectNSDimagery/data/nsd/nsddata/experiments/nsdimagery/rawtargetimages/setA/crs_045.0deg_450L_43W.png,nsdimagery_subj01_visA.tsv,visA,1,1,1,E,R,crs_045.0deg_450L_43W_cueR.png,,0.0,1.0,0.0,0,1,2.0,151.99074112,155.990631596,,,153.047761123998,1057.02000399833
subj01,visA,vision,A,34,33,34,3,V,bar_090.0deg_450L_43W.png,6,/home/jovyan/NHprojectNSDimagery/data/nsd/nsddata/experiments/nsdimagery/rawtargetimages/setA/bar_090.0deg_450L_43W.png,nsdimagery_subj01_visA.tsv,visA,1,1,1,V,V,bar_090.0deg_450L_43W_cueV.png,,1.0,1.0,0.0,1,0,1.0,155.990631596,159.991184461,,,156.563948424999,573.316828998941
subj01,visA,vision,A,35,34,35,5,P,crs_000.0deg_450L_43W.png,6,/home/jovyan/NHprojectNSDimagery/data/nsd/nsddata/experiments/nsdimagery/rawtargetimages/setA/crs_000.0deg_450L_43W.png,nsdimagery_subj01_visA.tsv,visA,1,1,1,P,P,crs_000.0deg_450L_43W_cueP.png,,1.0,1.0,0.0,1,0,1.0,163.990650525,167.991187634001,,,164.638898388999,648.247863999131
subj01,visA,vision,A,36,35,36,1,H,bar_000.0deg_450L_43W.png,8,/home/jovyan/NHprojectNSDimagery/data/nsd/nsddata/experiments/nsdimagery/rawtargetimages/setA/bar_000.0deg_450L_43W.png,nsdimagery_subj01_visA.tsv,visA,1,1,1,H,H,bar_000.0deg_450L_43W_cueH.png,,1.0,1.0,0.0,1,0,1.0,167.991187634001,171.99101329,,,168.625224804,634.037169998919
subj01,visA,vision,A,37,36,37,4,L,bar_135.0deg_450L_43W.png,7,/home/jovyan/NHprojectNSDimagery/data/nsd/nsddata/experiments/nsdimagery/rawtargetimages/setA/bar_135.0deg_450L_43W.png,nsdimagery_subj01_visA.tsv,visA,1,1,1,L,H,bar_135.0deg_450L_43W_cueH.png,,0.0,1.0,0.0,0,1,2.0,171.99101329,175.990949931002,,,172.668719933001,677.70664300042
subj01,visA,vision,A,38,37,38,5,P,crs_000.0deg_450L_43W.png,7,/home/jovyan/NHprojectNSDimagery/data/nsd/nsddata/experiments/nsdimagery/rawtargetimages/setA/crs_000.0deg_450L_43W.png,nsdimagery_subj01_visA.tsv,visA,1,1,1,P,E,crs_000.0deg_450L_43W_cueE.png,,0.0,1.0,0.0,0,1,2.0,175.990949931002,179.99024132,,,176.855482149,864.532217998203
subj01,visA,vision,A,39,38,39,6,E,crs_045.0deg_450L_43W.png,6,/home/jovyan/NHprojectNSDimagery/data/nsd/nsddata/experiments/nsdimagery/rawtargetimages/setA/crs_045.0deg_450L_43W.png,nsdimagery_subj01_visA.tsv,visA,1,1,1,E,E,crs_045.0deg_450L_43W_cueE.png,,1.0,1.0,0.0,1,0,1.0,179.99024132,183.989660306001,,,180.670180912999,679.93959299929
subj01,visA,vision,A,40,39,40,2,R,bar_045.0deg_450L_43W.png,6,/home/jovyan/NHprojectNSDimagery/data/nsd/nsddata/experiments/nsdimagery/rawtargetimages/setA/bar_045.0deg_450L_43W.png,nsdimagery_subj01_visA.tsv,visA,1,1,1,R,H,bar_045.0deg_450L_43W_cueH.png,,0.0,1.0,0.0,0,1,2.0,183.989660306001,187.989330905999,,,184.8696451,879.984793999029
subj01,visA,vision,A,41,40,41,3,V,bar_090.0deg_450L_43W.png,7,/home/jovyan/NHprojectNSDimagery/data/nsd/nsddata/experiments/nsdimagery/rawtargetimages/setA/bar_090.0deg_450L_43W.png,nsdimagery_subj01_visA.tsv,visA,1,1,1,V,E,bar_090.0deg_450L_43W_cueE.png,,0.0,1.0,0.0,0,1,2.0,187.989330905999,191.989533800999,,,188.743846951998,754.51604599948
subj01,visA,vision,A,42,41,42,5,P,crs_000.0deg_450L_43W.png,8,/home/jovyan/NHprojectNSDimagery/data/nsd/nsddata/experiments/nsdimagery/rawtargetimages/setA/crs_000.0deg_450L_43W.png,nsdimagery_subj01_visA.tsv,visA,1,1,1,P,P,crs_000.0deg_450L_43W_cueP.png,,1.0,1.0,0.0,1,0,1.0,195.989877641001,199.988821833998,,,196.673687127,683.809485999518
subj01,visA,vision,A,43,42,43,4,L,bar_135.0deg_450L_43W.png,8,/home/jovyan/NHprojectNSDimagery/data/nsd/nsddata/experiments/nsdimagery/rawtargetimages/setA/bar_135.0deg_450L_43W.png,nsdimagery_subj01_visA.tsv,visA,1,1,1,L,L,bar_135.0deg_450L_43W_cueL.png,,1.0,1.0,0.0,1,0,1.0,199.988821833998,203.988458764001,,,200.626778763999,637.956930000655
subj01,visA,vision,A,44,43,44,6,E,crs_045.0deg_450L_43W.png,7,/home/jovyan/NHprojectNSDimagery/data/nsd/nsddata/experiments/nsdimagery/rawtargetimages/setA/crs_045.0deg_450L_43W.png,nsdimagery_subj01_visA.tsv,visA,1,1,1,E,E,crs_045.0deg_450L_43W_cueE.png,,1.0,1.0,0.0,1,0,1.0,203.988458764001,207.988323000001,,,204.680028914001,691.570150000189
subj01,visA,vision,A,45,44,45,2,R,bar_045.0deg_450L_43W.png,7,/home/jovyan/NHprojectNSDimagery/data/nsd/nsddata/experiments/nsdimagery/rawtargetimages/setA/bar_045.0deg_450L_43W.png,nsdimagery_subj01_visA.tsv,visA,1,1,1,R,V,bar_045.0deg_450L_43W_cueV.png,,0.0,1.0,0.0,0,1,2.0,207.988323000001,211.988691553001,,,208.749299993,760.976992998621
subj01,visA,vision,A,46,45,46,3,V,bar_090.0deg_450L_43W.png,8,/home/jovyan/NHprojectNSDimagery/data/nsd/nsddata/experiments/nsdimagery/rawtargetimages/setA/bar_090.0deg_450L_43W.png,nsdimagery_subj01_visA.tsv,visA,1,1,1,V,H,bar_090.0deg_450L_43W_cueH.png,,0.0,1.0,0.0,0,1,2.0,211.988691553001,215.988628065999,,,212.800341754999,811.650201998418
subj01,visA,vision,A,47,46,47,2,R,bar_045.0deg_450L_43W.png,8,/home/jovyan/NHprojectNSDimagery/data/nsd/nsddata/experiments/nsdimagery/rawtargetimages/setA/bar_045.0deg_450L_43W.png,nsdimagery_subj01_visA.tsv,visA,1,1,1,R,R,bar_045.0deg_450L_43W_cueR.png,,1.0,1.0,0.0,1,0,1.0,215.988628065999,219.988281721999,,,216.593389203001,604.761137001333
subj01,visA,vision,A,48,47,48,6,E,crs_045.0deg_450L_43W.png,8,/home/jovyan/NHprojectNSDimagery/data/nsd/nsddata/experiments/nsdimagery/rawtargetimages/setA/crs_045.0deg_450L_43W.png,nsdimagery_subj01_visA.tsv,visA,1,1,1,E,R,crs_045.0deg_450L_43W_cueR.png,,0.0,1.0,0.0,0,1,2.0,219.988281721999,223.987827460998,,,220.745623757,757.342035001784
subj01,imgA_1,imagery,A,1,144,145,4,L,bar_135.0deg_450L_43W.png,1,/home/jovyan/NHprojectNSDimagery/data/nsd/nsddata/experiments/nsdimagery/rawtargetimages/setA/bar_135.0deg_450L_43W.png,nsdimagery_subj01_imgA_1.tsv,imgA_1,1,1,3,L,L,blank00000_00000000_cueL.png,,,,0.0,1,0,1.0,11.998026977999,15.9993317570006,,,14.1045881259997,2106.56114800076
subj01,imgA_1,imagery,A,2,145,146,3,V,bar_090.0deg_450L_43W.png,1,/home/jovyan/NHprojectNSDimagery/data/nsd/nsddata/experiments/nsdimagery/rawtargetimages/setA/bar_090.0deg_450L_43W.png,nsdimagery_subj01_imgA_1.tsv,imgA_1,1,1,3,V,V,blank00000_00000000_cueV.png,,,,0.0,1,0,1.0,15.9993317570006,19.9974611840007,,,17.5521325580012,1552.80080100056
subj01,imgA_1,imagery,A,3,146,147,1,H,bar_000.0deg_450L_43W.png,1,/home/jovyan/NHprojectNSDimagery/data/nsd/nsddata/experiments/nsdimagery/rawtargetimages/setA/bar_000.0deg_450L_43W.png,nsdimagery_subj01_imgA_1.tsv,imgA_1,1,1,3,H,H,blank00000_00000000_cueH.png,,,,0.0,1,0,1.0,19.9974611840007,23.9973506130009,,,21.3037737249979,1306.31254099717
subj01,imgA_1,imagery,A,4,147,148,3,V,bar_090.0deg_450L_43W.png,2,/home/jovyan/NHprojectNSDimagery/data/nsd/nsddata/experiments/nsdimagery/rawtargetimages/setA/bar_090.0deg_450L_43W.png,nsdimagery_subj01_imgA_1.tsv,imgA_1,1,1,3,V,V,blank00000_00000000_cueV.png,,,,0.0,1,0,1.0,23.9973506130009,27.9970916130005,,,25.2426875380006,1245.33692499972
subj01,imgA_1,imagery,A,5,148,149,4,L,bar_135.0deg_450L_43W.png,2,/home/jovyan/NHprojectNSDimagery/data/nsd/nsddata/experiments/nsdimagery/rawtargetimages/setA/bar_135.0deg_450L_43W.png,nsdimagery_subj01_imgA_1.tsv,imgA_1,1,1,3,L,L,blank00000_00000000_cueL.png,,,,0.0,1,0,1.0,27.9970916130005,31.9975927329979,,,29.215749660998,1218.65804799745
subj01,imgA_1,imagery,A,6,149,150,2,R,bar_045.0deg_450L_43W.png,1,/home/jovyan/NHprojectNSDimagery/data/nsd/nsddata/experiments/nsdimagery/rawtargetimages/setA/bar_045.0deg_450L_43W.png,nsdimagery_subj01_imgA_1.tsv,imgA_1,1,1,3,R,R,blank00000_00000000_cueR.png,,,,0.0,1,0,1.0,31.9975927329979,35.9973165279989,,,33.2859277669995,1288.33503400165
subj01,imgA_1,imagery,A,7,150,151,6,E,crs_045.0deg_450L_43W.png,1,/home/jovyan/NHprojectNSDimagery/data/nsd/nsddata/experiments/nsdimagery/rawtargetimages/setA/crs_045.0deg_450L_43W.png,nsdimagery_subj01_imgA_1.tsv,imgA_1,1,1,3,E,E,blank00000_00000000_cueE.png,,,,0.0,1,0,1.0,35.9973165279989,39.9966874159982,,,37.4673016160014,1469.98508800243
subj01,imgA_1,imagery,A,8,151,152,4,L,bar_135.0deg_450L_43W.png,3,/home/jovyan/NHprojectNSDimagery/data/nsd/nsddata/experiments/nsdimagery/rawtargetimages/setA/bar_135.0deg_450L_43W.png,nsdimagery_subj01_imgA_1.tsv,imgA_1,1,1,3,L,L,blank00000_00000000_cueL.png,,,,0.0,1,0,1.0,39.9966874159982,43.9963966869982,,,41.3435776469996,1346.89023100145
subj01,imgA_1,imagery,A,9,152,153,5,P,crs_000.0deg_450L_43W.png,1,/home/jovyan/NHprojectNSDimagery/data/nsd/nsddata/experiments/nsdimagery/rawtargetimages/setA/crs_000.0deg_450L_43W.png,nsdimagery_subj01_imgA_1.tsv,imgA_1,1,1,3,P,P,blank00000_00000000_cueP.png,,,,0.0,1,0,1.0,47.997013193999,51.9959286459998,,,49.7664633460008,1769.45015200181
subj01,imgA_1,imagery,A,10,153,154,6,E,crs_045.0deg_450L_43W.png,2,/home/jovyan/NHprojectNSDimagery/data/nsd/nsddata/experiments/nsdimagery/rawtargetimages/setA/crs_045.0deg_450L_43W.png,nsdimagery_subj01_imgA_1.tsv,imgA_1,1,1,3,E,E,blank00000_00000000_cueE.png,,,,0.0,1,0,1.0,51.9959286459998,55.995711986001,,,52.9882223929999,992.293747000076
subj01,imgA_1,imagery,A,11,154,155,1,H,bar_000.0deg_450L_43W.png,2,/home/jovyan/NHprojectNSDimagery/data/nsd/nsddata/experiments/nsdimagery/rawtargetimages/setA/bar_000.0deg_450L_43W.png,nsdimagery_subj01_imgA_1.tsv,imgA_1,1,1,3,H,H,blank00000_00000000_cueH.png,,,,0.0,1,0,1.0,55.995711986001,59.9956090380001,,,57.276358340001,1280.64635400005
subj01,imgA_1,imagery,A,12,155,156,5,P,crs_000.0deg_450L_43W.png,2,/home/jovyan/NHprojectNSDimagery/data/nsd/nsddata/experiments/nsdimagery/rawtargetimages/setA/crs_000.0deg_450L_43W.png,nsdimagery_subj01_imgA_1.tsv,imgA_1,1,1,3,P,P,blank00000_00000000_cueP.png,,,,0.0,1,0,1.0,59.9956090380001,63.9956099779993,,,61.1251847089989,1129.57567099875
subj01,imgA_1,imagery,A,13,156,157,4,L,bar_135.0deg_450L_43W.png,4,/home/jovyan/NHprojectNSDimagery/data/nsd/nsddata/experiments/nsdimagery/rawtargetimages/setA/bar_135.0deg_450L_43W.png,nsdimagery_subj01_imgA_1.tsv,imgA_1,1,1,3,L,L,blank00000_00000000_cueL.png,,,,0.0,1,0,1.0,63.9956099779993,67.9954040410012,,,65.1104682119985,1114.85823399926
subj01,imgA_1,imagery,A,14,157,158,5,P,crs_000.0deg_450L_43W.png,3,/home/jovyan/NHprojectNSDimagery/data/nsd/nsddata/experiments/nsdimagery/rawtargetimages/setA/crs_000.0deg_450L_43W.png,nsdimagery_subj01_imgA_1.tsv,imgA_1,1,1,3,P,P,blank00000_00000000_cueP.png,,,,0.0,1,0,1.0,67.9954040410012,71.9956886689979,,,69.4405579480008,1445.15390699962
subj01,imgA_1,imagery,A,15,158,159,1,H,bar_000.0deg_450L_43W.png,3,/home/jovyan/NHprojectNSDimagery/data/nsd/nsddata/experiments/nsdimagery/rawtargetimages/setA/bar_000.0deg_450L_43W.png,nsdimagery_subj01_imgA_1.tsv,imgA_1,1,1,3,H,H,blank00000_00000000_cueH.png,,,,0.0,1,0,1.0,71.9956886689979,75.9952049399981,,,73.5954227479997,1599.73407900179
subj01,imgA_1,imagery,A,16,159,160,3,V,bar_090.0deg_450L_43W.png,3,/home/jovyan/NHprojectNSDimagery/data/nsd/nsddata/experiments/nsdimagery/rawtargetimages/setA/bar_090.0deg_450L_43W.png,nsdimagery_subj01_imgA_1.tsv,imgA_1,1,1,3,V,V,blank00000_00000000_cueV.png,,,,0.0,1,0,1.0,79.9953353829987,83.9944895400004,,,81.3438477480013,1348.51236500253
subj01,imgA_1,imagery,A,17,160,161,5,P,crs_000.0deg_450L_43W.png,4,/home/jovyan/NHprojectNSDimagery/data/nsd/nsddata/experiments/nsdimagery/rawtargetimages/setA/crs_000.0deg_450L_43W.png,nsdimagery_subj01_imgA_1.tsv,imgA_1,1,1,3,P,P,blank00000_00000000_cueP.png,,,,0.0,1,0,1.0,83.9944895400004,87.9944562109995,,,85.2890150380008,1294.52549800044
subj01,imgA_1,imagery,A,18,161,162,2,R,bar_045.0deg_450L_43W.png,2,/home/jovyan/NHprojectNSDimagery/data/nsd/nsddata/experiments/nsdimagery/rawtargetimages/setA/bar_045.0deg_450L_43W.png,nsdimagery_subj01_imgA_1.tsv,imgA_1,1,1,3,R,R,blank00000_00000000_cueR.png,,,,0.0,1,0,1.0,87.9944562109995,91.9947122579979,,,89.420463161001,1426.00695000147
subj01,imgA_1,imagery,A,19,162,163,1,H,bar_000.0deg_450L_43W.png,4,/home/jovyan/NHprojectNSDimagery/data/nsd/nsddata/experiments/nsdimagery/rawtargetimages/setA/bar_000.0deg_450L_43W.png,nsdimagery_subj01_imgA_1.tsv,imgA_1,1,1,3,H,H,blank00000_00000000_cueH.png,,,,0.0,1,0,1.0,91.9947122579979,95.9944314950008,,,93.439690651001,1444.97839300311
subj01,imgA_1,imagery,A,20,163,164,3,V,bar_090.0deg_450L_43W.png,4,/home/jovyan/NHprojectNSDimagery/data/nsd/nsddata/experiments/nsdimagery/rawtargetimages/setA/bar_090.0deg_450L_43W.png,nsdimagery_subj01_imgA_1.tsv,imgA_1,1,1,3,V,V,blank00000_00000000_cueV.png,,,,0.0,1,0,1.0,95.9944314950008,99.993432618001,,,97.706163169998,1711.73167499728
subj01,imgA_1,imagery,A,21,164,165,5,P,crs_000.0deg_450L_43W.png,5,/home/jovyan/NHprojectNSDimagery/data/nsd/nsddata/experiments/nsdimagery/rawtargetimages/setA/crs_000.0deg_450L_43W.png,nsdimagery_subj01_imgA_1.tsv,imgA_1,1,1,3,P,P,blank00000_00000000_cueP.png,,,,0.0,1,0,1.0,99.993432618001,103.994303946998,,,101.507232231001,1513.79961299972
subj01,imgA_1,imagery,A,22,165,166,1,H,bar_000.0deg_450L_43W.png,5,/home/jovyan/NHprojectNSDimagery/data/nsd/nsddata/experiments/nsdimagery/rawtargetimages/setA/bar_000.0deg_450L_43W.png,nsdimagery_subj01_imgA_1.tsv,imgA_1,1,1,3,H,H,blank00000_00000000_cueH.png,,,,0.0,1,0,1.0,103.994303946998,107.990923532998,,,105.735167414001,1740.86346700278
subj01,imgA_1,imagery,A,23,166,167,2,R,bar_045.0deg_450L_43W.png,3,/home/jovyan/NHprojectNSDimagery/data/nsd/nsddata/experiments/nsdimagery/rawtargetimages/setA/bar_045.0deg_450L_43W.png,nsdimagery_subj01_imgA_1.tsv,imgA_1,1,1,3,R,R,blank00000_00000000_cueR.png,,,,0.0,1,0,1.0,111.991014317999,115.991527241,,,114.194707315,2203.69299700178
subj01,imgA_1,imagery,A,24,167,168,6,E,crs_045.0deg_450L_43W.png,3,/home/jovyan/NHprojectNSDimagery/data/nsd/nsddata/experiments/nsdimagery/rawtargetimages/setA/crs_045.0deg_450L_43W.png,nsdimagery_subj01_imgA_1.tsv,imgA_1,1,1,3,E,E,blank00000_00000000_cueE.png,,,,0.0,1,0,1.0,115.991527241,119.991532232001,,,117.977998367998,1986.47112699837
subj01,imgA_1,imagery,A,25,168,169,1,H,bar_000.0deg_450L_43W.png,6,/home/jovyan/NHprojectNSDimagery/data/nsd/nsddata/experiments/nsdimagery/rawtargetimages/setA/bar_000.0deg_450L_43W.png,nsdimagery_subj01_imgA_1.tsv,imgA_1,1,1,3,H,H,blank00000_00000000_cueH.png,,,,0.0,1,0,1.0,119.991532232001,123.991228457999,,,121.639630841,1648.09860899913
subj01,imgA_1,imagery,A,26,169,170,2,R,bar_045.0deg_450L_43W.png,4,/home/jovyan/NHprojectNSDimagery/data/nsd/nsddata/experiments/nsdimagery/rawtargetimages/setA/bar_045.0deg_450L_43W.png,nsdimagery_subj01_imgA_1.tsv,imgA_1,1,1,3,R,R,blank00000_00000000_cueR.png,,,,0.0,1,0,1.0,123.991228457999,127.990885020001,,,125.837390574001,1846.16211600223
subj01,imgA_1,imagery,A,27,170,171,6,E,crs_045.0deg_450L_43W.png,4,/home/jovyan/NHprojectNSDimagery/data/nsd/nsddata/experiments/nsdimagery/rawtargetimages/setA/crs_045.0deg_450L_43W.png,nsdimagery_subj01_imgA_1.tsv,imgA_1,1,1,3,E,E,blank00000_00000000_cueE.png,,,,0.0,1,0,1.0,127.990885020001,131.991130931001,,,129.825971934999,1835.0869149981
subj01,imgA_1,imagery,A,28,171,172,4,L,bar_135.0deg_450L_43W.png,5,/home/jovyan/NHprojectNSDimagery/data/nsd/nsddata/experiments/nsdimagery/rawtargetimages/setA/bar_135.0deg_450L_43W.png,nsdimagery_subj01_imgA_1.tsv,imgA_1,1,1,3,L,L,blank00000_00000000_cueL.png,,,,0.0,1,0,1.0,131.991130931001,135.991426236,,,132.996732961001,1005.60202999986
subj01,imgA_1,imagery,A,29,172,173,1,H,bar_000.0deg_450L_43W.png,7,/home/jovyan/NHprojectNSDimagery/data/nsd/nsddata/experiments/nsdimagery/rawtargetimages/setA/bar_000.0deg_450L_43W.png,nsdimagery_subj01_imgA_1.tsv,imgA_1,1,1,3,H,H,blank00000_00000000_cueH.png,,,,0.0,1,0,1.0,135.991426236,139.991832976,,,137.573206587,1581.78035099991
subj01,imgA_1,imagery,A,30,173,174,4,L,bar_135.0deg_450L_43W.png,6,/home/jovyan/NHprojectNSDimagery/data/nsd/nsddata/experiments/nsdimagery/rawtargetimages/setA/bar_135.0deg_450L_43W.png,nsdimagery_subj01_imgA_1.tsv,imgA_1,1,1,3,L,L,blank00000_00000000_cueL.png,,,,0.0,1,0,1.0,139.991832976,143.991851824998,,,141.834706645001,1842.87366900026
subj01,imgA_1,imagery,A,31,174,175,2,R,bar_045.0deg_450L_43W.png,5,/home/jovyan/NHprojectNSDimagery/data/nsd/nsddata/experiments/nsdimagery/rawtargetimages/setA/bar_045.0deg_450L_43W.png,nsdimagery_subj01_imgA_1.tsv,imgA_1,1,1,3,R,R,blank00000_00000000_cueR.png,,,,0.0,1,0,1.0,143.991851824998,147.992136230998,,,146.005021904999,2013.17008000115
subj01,imgA_1,imagery,A,32,175,176,3,V,bar_090.0deg_450L_43W.png,5,/home/jovyan/NHprojectNSDimagery/data/nsd/nsddata/experiments/nsdimagery/rawtargetimages/setA/bar_090.0deg_450L_43W.png,nsdimagery_subj01_imgA_1.tsv,imgA_1,1,1,3,V,V,blank00000_00000000_cueV.png,,,,0.0,1,0,1.0,147.992136230998,151.991228417999,,,149.883118222999,1890.98199200089
subj01,imgA_1,imagery,A,33,176,177,6,E,crs_045.0deg_450L_43W.png,5,/home/jovyan/NHprojectNSDimagery/data/nsd/nsddata/experiments/nsdimagery/rawtargetimages/setA/crs_045.0deg_450L_43W.png,nsdimagery_subj01_imgA_1.tsv,imgA_1,1,1,3,E,E,blank00000_00000000_cueE.png,,,,0.0,1,0,1.0,151.991228417999,155.991969339,,,154.181266312,2190.03789400085
subj01,imgA_1,imagery,A,34,177,178,3,V,bar_090.0deg_450L_43W.png,6,/home/jovyan/NHprojectNSDimagery/data/nsd/nsddata/experiments/nsdimagery/rawtargetimages/setA/bar_090.0deg_450L_43W.png,nsdimagery_subj01_imgA_1.tsv,imgA_1,1,1,3,V,V,blank00000_00000000_cueV.png,,,,0.0,1,0,1.0,155.991969339,159.991555387998,,,157.840287812,1848.31847299938
subj01,imgA_1,imagery,A,35,178,179,5,P,crs_000.0deg_450L_43W.png,6,/home/jovyan/NHprojectNSDimagery/data/nsd/nsddata/experiments/nsdimagery/rawtargetimages/setA/crs_000.0deg_450L_43W.png,nsdimagery_subj01_imgA_1.tsv,imgA_1,1,1,3,P,P,blank00000_00000000_cueP.png,,,,0.0,1,0,1.0,163.991271723,167.990406582998,,,165.822342512998,1831.07078999819
subj01,imgA_1,imagery,A,36,179,180,1,H,bar_000.0deg_450L_43W.png,8,/home/jovyan/NHprojectNSDimagery/data/nsd/nsddata/experiments/nsdimagery/rawtargetimages/setA/bar_000.0deg_450L_43W.png,nsdimagery_subj01_imgA_1.tsv,imgA_1,1,1,3,H,H,blank00000_00000000_cueH.png,,,,0.0,1,0,1.0,167.990406582998,171.990148995999,,,169.470733819999,1480.32723700089
subj01,imgA_1,imagery,A,37,180,181,4,L,bar_135.0deg_450L_43W.png,7,/home/jovyan/NHprojectNSDimagery/data/nsd/nsddata/experiments/nsdimagery/rawtargetimages/setA/bar_135.0deg_450L_43W.png,nsdimagery_subj01_imgA_1.tsv,imgA_1,1,1,3,L,L,blank00000_00000000_cueL.png,,,,0.0,1,0,1.0,171.990148995999,175.991010131998,,,172.853514349001,863.365353001427
subj01,imgA_1,imagery,A,38,181,182,5,P,crs_000.0deg_450L_43W.png,7,/home/jovyan/NHprojectNSDimagery/data/nsd/nsddata/experiments/nsdimagery/rawtargetimages/setA/crs_000.0deg_450L_43W.png,nsdimagery_subj01_imgA_1.tsv,imgA_1,1,1,3,P,P,blank00000_00000000_cueP.png,,,,0.0,1,0,1.0,175.991010131998,179.990442095001,,,176.724796726001,733.786594002595
subj01,imgA_1,imagery,A,39,182,183,6,E,crs_045.0deg_450L_43W.png,6,/home/jovyan/NHprojectNSDimagery/data/nsd/nsddata/experiments/nsdimagery/rawtargetimages/setA/crs_045.0deg_450L_43W.png,nsdimagery_subj01_imgA_1.tsv,imgA_1,1,1,3,E,E,blank00000_00000000_cueE.png,,,,0.0,1,0,1.0,179.990442095001,183.989983907999,,,181.521613695,1531.17159999965
subj01,imgA_1,imagery,A,40,183,184,2,R,bar_045.0deg_450L_43W.png,6,/home/jovyan/NHprojectNSDimagery/data/nsd/nsddata/experiments/nsdimagery/rawtargetimages/setA/bar_045.0deg_450L_43W.png,nsdimagery_subj01_imgA_1.tsv,imgA_1,1,1,3,R,R,blank00000_00000000_cueR.png,,,,0.0,1,0,1.0,183.989983907999,187.989764604001,,,185.296275239998,1306.29133199909
subj01,imgA_1,imagery,A,41,184,185,3,V,bar_090.0deg_450L_43W.png,7,/home/jovyan/NHprojectNSDimagery/data/nsd/nsddata/experiments/nsdimagery/rawtargetimages/setA/bar_090.0deg_450L_43W.png,nsdimagery_subj01_imgA_1.tsv,imgA_1,1,1,3,V,V,blank00000_00000000_cueV.png,,,,0.0,1,0,1.0,187.989764604001,191.989948606999,,,190.158555555001,2168.79095100012
subj01,imgA_1,imagery,A,42,185,186,5,P,crs_000.0deg_450L_43W.png,8,/home/jovyan/NHprojectNSDimagery/data/nsd/nsddata/experiments/nsdimagery/rawtargetimages/setA/crs_000.0deg_450L_43W.png,nsdimagery_subj01_imgA_1.tsv,imgA_1,1,1,3,P,P,blank00000_00000000_cueP.png,,,,0.0,1,0,1.0,195.989734393999,199.989500206,,,197.767472954001,1777.73856000204
subj01,imgA_1,imagery,A,43,186,187,4,L,bar_135.0deg_450L_43W.png,8,/home/jovyan/NHprojectNSDimagery/data/nsd/nsddata/experiments/nsdimagery/rawtargetimages/setA/bar_135.0deg_450L_43W.png,nsdimagery_subj01_imgA_1.tsv,imgA_1,1,1,3,L,L,blank00000_00000000_cueL.png,,,,0.0,2,0,1.0,199.989500206,203.988999802001,,,201.528783263999,1539.28305799855
subj01,imgA_1,imagery,A,44,187,188,6,E,crs_045.0deg_450L_43W.png,7,/home/jovyan/NHprojectNSDimagery/data/nsd/nsddata/experiments/nsdimagery/rawtargetimages/setA/crs_045.0deg_450L_43W.png,nsdimagery_subj01_imgA_1.tsv,imgA_1,1,1,3,E,E,blank00000_00000000_cueE.png,,,,1.0,1,1,2.0,203.988999802001,207.989101384999,,,207.118364034999,3129.36423299834
subj01,imgA_1,imagery,A,45,188,189,2,R,bar_045.0deg_450L_43W.png,7,/home/jovyan/NHprojectNSDimagery/data/nsd/nsddata/experiments/nsdimagery/rawtargetimages/setA/bar_045.0deg_450L_43W.png,nsdimagery_subj01_imgA_1.tsv,imgA_1,1,1,3,R,R,blank00000_00000000_cueR.png,,,,0.0,2,0,1.0,207.989101384999,211.988304282,,,209.471304293998,1482.20290899917
subj01,imgA_1,imagery,A,46,189,190,3,V,bar_090.0deg_450L_43W.png,8,/home/jovyan/NHprojectNSDimagery/data/nsd/nsddata/experiments/nsdimagery/rawtargetimages/setA/bar_090.0deg_450L_43W.png,nsdimagery_subj01_imgA_1.tsv,imgA_1,1,1,3,V,V,blank00000_00000000_cueV.png,,,,0.0,1,0,1.0,211.988304282,215.988902413999,,,213.601343050999,1613.0387689991
subj01,imgA_1,imagery,A,47,190,191,2,R,bar_045.0deg_450L_43W.png,8,/home/jovyan/NHprojectNSDimagery/data/nsd/nsddata/experiments/nsdimagery/rawtargetimages/setA/bar_045.0deg_450L_43W.png,nsdimagery_subj01_imgA_1.tsv,imgA_1,1,1,3,R,R,blank00000_00000000_cueR.png,,,,0.0,2,0,1.0,215.988902413999,219.988805986999,,,217.409111500001,1420.20908600171
subj01,imgA_1,imagery,A,48,191,192,6,E,crs_045.0deg_450L_43W.png,8,/home/jovyan/NHprojectNSDimagery/data/nsd/nsddata/experiments/nsdimagery/rawtargetimages/setA/crs_045.0deg_450L_43W.png,nsdimagery_subj01_imgA_1.tsv,imgA_1,1,1,3,E,E,blank00000_00000000_cueE.png,,,,0.0,1,0,1.0,219.988805986999,223.988247535999,,,221.281922456001,1293.11646900169
subj01,visB,vision,B,1,192,193,1,W,shared0385_nsd28752.png,1,/home/jovyan/NHprojectNSDimagery/data/nsd/nsddata/experiments/nsdimagery/rawtargetimages/setB/shared0385_nsd28752.png,nsdimagery_subj01_visB.tsv,visB,1,1,4,W,B,shared0385_nsd28752_cueB.png,,0.0,1.0,0.0,0,1,2.0,12.0077211110001,16.007785146001,,,12.8675213739989,859.80026299876
subj01,visB,vision,B,2,193,194,4,C,shared0842_nsd61178.png,1,/home/jovyan/NHprojectNSDimagery/data/nsd/nsddata/experiments/nsdimagery/rawtargetimages/setB/shared0842_nsd61178.png,nsdimagery_subj01_visB.tsv,visB,1,1,4,C,W,shared0842_nsd61178_cueW.png,,0.0,1.0,0.0,0,1,2.0,16.007785146001,20.0060850209993,,,16.8531382619985,845.353115997568
subj01,visB,vision,B,3,194,195,1,W,shared0385_nsd28752.png,2,/home/jovyan/NHprojectNSDimagery/data/nsd/nsddata/experiments/nsdimagery/rawtargetimages/setB/shared0385_nsd28752.png,nsdimagery_subj01_visB.tsv,visB,1,1,4,W,W,shared0385_nsd28752_cueW.png,,1.0,1.0,0.0,1,0,1.0,20.0060850209993,24.0074376990015,,,20.7439549720002,737.869951000903
subj01,visB,vision,B,4,195,196,5,D,shared0907_nsd65873.png,1,/home/jovyan/NHprojectNSDimagery/data/nsd/nsddata/experiments/nsdimagery/rawtargetimages/setB/shared0907_nsd65873.png,nsdimagery_subj01_visB.tsv,visB,1,1,4,D,B,shared0907_nsd65873_cueB.png,,0.0,1.0,0.0,0,1,2.0,24.0074376990015,28.005607381001,,,24.8082127890011,800.775089999661
subj01,visB,vision,B,5,196,197,6,T,shared0000_nsd00000.png,1,/home/jovyan/NHprojectNSDimagery/data/nsd/nsddata/experiments/nsdimagery/rawtargetimages/setB/shared0000_nsd00000.png,nsdimagery_subj01_visB.tsv,visB,1,1,4,T,T,shared0000_nsd00000_cueT.png,,1.0,1.0,0.0,1,0,1.0,28.005607381001,32.0081358200005,,,28.7761546719994,770.547290998365
subj01,visB,vision,B,6,197,198,3,B,shared0741_nsd53882.png,1,/home/jovyan/NHprojectNSDimagery/data/nsd/nsddata/experiments/nsdimagery/rawtargetimages/setB/shared0741_nsd53882.png,nsdimagery_subj01_visB.tsv,visB,1,1,4,B,K,shared0741_nsd53882_cueK.png,,0.0,1.0,0.0,0,1,2.0,32.0081358200005,36.0051293950019,,,32.6683938360002,660.258015999716
subj01,visB,vision,B,7,198,199,5,D,shared0907_nsd65873.png,2,/home/jovyan/NHprojectNSDimagery/data/nsd/nsddata/experiments/nsdimagery/rawtargetimages/setB/shared0907_nsd65873.png,nsdimagery_subj01_visB.tsv,visB,1,1,4,D,B,shared0907_nsd65873_cueB.png,,0.0,1.0,0.0,0,1,2.0,36.0051293950019,40.0084661889996,,,36.7166484080008,711.519012998906
subj01,visB,vision,B,8,199,200,2,K,shared0413_nsd30857.png,1,/home/jovyan/NHprojectNSDimagery/data/nsd/nsddata/experiments/nsdimagery/rawtargetimages/setB/shared0413_nsd30857.png,nsdimagery_subj01_visB.tsv,visB,1,1,4,K,K,shared0413_nsd30857_cueK.png,,1.0,1.0,0.0,1,0,1.0,40.0084661889996,44.0053734409994,,,40.6185219600011,610.055771001498
subj01,visB,vision,B,9,200,201,1,W,shared0385_nsd28752.png,3,/home/jovyan/NHprojectNSDimagery/data/nsd/nsddata/experiments/nsdimagery/rawtargetimages/setB/shared0385_nsd28752.png,nsdimagery_subj01_visB.tsv,visB,1,1,4,W,K,shared0385_nsd28752_cueK.png,,0.0,1.0,0.0,0,1,2.0,44.0053734409994,48.0087628389992,,,44.6839246529998,678.551212000457
subj01,visB,vision,B,10,201,202,2,K,shared0413_nsd30857.png,2,/home/jovyan/NHprojectNSDimagery/data/nsd/nsddata/experiments/nsdimagery/rawtargetimages/setB/shared0413_nsd30857.png,nsdimagery_subj01_visB.tsv,visB,1,1,4,K,W,shared0413_nsd30857_cueW.png,,0.0,1.0,0.0,0,1,2.0,52.0047803529997,56.0092031329987,,,53.1482292610017,1143.44890800203
subj01,visB,vision,B,11,202,203,4,C,shared0842_nsd61178.png,2,/home/jovyan/NHprojectNSDimagery/data/nsd/nsddata/experiments/nsdimagery/rawtargetimages/setB/shared0842_nsd61178.png,nsdimagery_subj01_visB.tsv,visB,1,1,4,C,C,shared0842_nsd61178_cueC.png,,1.0,1.0,0.0,1,0,1.0,56.0092031329987,60.0041198889994,,,56.8456314989999,836.428366001201
subj01,visB,vision,B,12,203,204,2,K,shared0413_nsd30857.png,3,/home/jovyan/NHprojectNSDimagery/data/nsd/nsddata/experiments/nsdimagery/rawtargetimages/setB/shared0413_nsd30857.png,nsdimagery_subj01_visB.tsv,visB,1,1,4,K,T,shared0413_nsd30857_cueT.png,,0.0,1.0,0.0,0,1,2.0,60.0041198889994,64.0092124170005,,,60.7260535419991,721.933652999724
subj01,visB,vision,B,13,204,205,6,T,shared0000_nsd00000.png,2,/home/jovyan/NHprojectNSDimagery/data/nsd/nsddata/experiments/nsdimagery/rawtargetimages/setB/shared0000_nsd00000.png,nsdimagery_subj01_visB.tsv,visB,1,1,4,T,B,shared0000_nsd00000_cueB.png,,0.0,1.0,0.0,0,1,2.0,64.0092124170005,68.0034444390003,,,64.7722422810002,763.029863999691
subj01,visB,vision,B,14,205,206,5,D,shared0907_nsd65873.png,3,/home/jovyan/NHprojectNSDimagery/data/nsd/nsddata/experiments/nsdimagery/rawtargetimages/setB/shared0907_nsd65873.png,nsdimagery_subj01_visB.tsv,visB,1,1,4,D,D,shared0907_nsd65873_cueD.png,,1.0,1.0,1.0,2,1,1.0,68.0034444390003,72.0096475470018,,,69.0367603679988,1033.31592899849
subj01,visB,vision,B,15,206,207,4,C,shared0842_nsd61178.png,3,/home/jovyan/NHprojectNSDimagery/data/nsd/nsddata/experiments/nsdimagery/rawtargetimages/setB/shared0842_nsd61178.png,nsdimagery_subj01_visB.tsv,visB,1,1,4,C,C,shared0842_nsd61178_cueC.png,,1.0,1.0,0.0,1,0,1.0,72.0096475470018,76.0032400900018,,,72.6992606120002,689.613064998412
subj01,visB,vision,B,16,207,208,1,W,shared0385_nsd28752.png,4,/home/jovyan/NHprojectNSDimagery/data/nsd/nsddata/experiments/nsdimagery/rawtargetimages/setB/shared0385_nsd28752.png,nsdimagery_subj01_visB.tsv,visB,1,1,4,W,W,shared0385_nsd28752_cueW.png,,1.0,1.0,0.0,1,0,1.0,76.0032400900018,80.0096131600003,,,76.6468654849996,643.625394997798
subj01,visB,vision,B,17,208,209,4,C,shared0842_nsd61178.png,4,/home/jovyan/NHprojectNSDimagery/data/nsd/nsddata/experiments/nsdimagery/rawtargetimages/setB/shared0842_nsd61178.png,nsdimagery_subj01_visB.tsv,visB,1,1,4,C,T,shared0842_nsd61178_cueT.png,,0.0,1.0,0.0,0,1,2.0,84.0033183660016,88.0043611670008,,,84.8299291490002,826.610782998614
subj01,visB,vision,B,18,209,210,5,D,shared0907_nsd65873.png,4,/home/jovyan/NHprojectNSDimagery/data/nsd/nsddata/experiments/nsdimagery/rawtargetimages/setB/shared0907_nsd65873.png,nsdimagery_subj01_visB.tsv,visB,1,1,4,D,D,shared0907_nsd65873_cueD.png,,1.0,1.0,0.0,1,0,1.0,88.0043611670008,92.0030908049994,,,88.5997606199999,595.399452999118
subj01,visB,vision,B,19,210,211,3,B,shared0741_nsd53882.png,2,/home/jovyan/NHprojectNSDimagery/data/nsd/nsddata/experiments/nsdimagery/rawtargetimages/setB/shared0741_nsd53882.png,nsdimagery_subj01_visB.tsv,visB,1,1,4,B,B,shared0741_nsd53882_cueB.png,,1.0,1.0,0.0,1,0,1.0,92.0030908049994,96.0038472460001,,,92.5473503569992,544.259551999858
subj01,visB,vision,B,20,211,212,2,K,shared0413_nsd30857.png,4,/home/jovyan/NHprojectNSDimagery/data/nsd/nsddata/experiments/nsdimagery/rawtargetimages/setB/shared0413_nsd30857.png,nsdimagery_subj01_visB.tsv,visB,1,1,4,K,K,shared0413_nsd30857_cueK.png,,1.0,1.0,0.0,1,0,1.0,96.0038472460001,100.002453121,,,96.5546372729987,550.790026998584
subj01,visB,vision,B,21,212,213,5,D,shared0907_nsd65873.png,5,/home/jovyan/NHprojectNSDimagery/data/nsd/nsddata/experiments/nsdimagery/rawtargetimages/setB/shared0907_nsd65873.png,nsdimagery_subj01_visB.tsv,visB,1,1,4,D,W,shared0907_nsd65873_cueW.png,,0.0,1.0,0.0,0,1,2.0,100.002453121,104.003304213998,,,100.615767541,613.314419999369
subj01,visB,vision,B,22,213,214,6,T,shared0000_nsd00000.png,3,/home/jovyan/NHprojectNSDimagery/data/nsd/nsddata/experiments/nsdimagery/rawtargetimages/setB/shared0000_nsd00000.png,nsdimagery_subj01_visB.tsv,visB,1,1,4,T,T,shared0000_nsd00000_cueT.png,,1.0,1.0,0.0,1,0,1.0,104.003304213998,108.001812376999,,,104.661541966001,658.237752002606
subj01,visB,vision,B,23,214,215,5,D,shared0907_nsd65873.png,6,/home/jovyan/NHprojectNSDimagery/data/nsd/nsddata/experiments/nsdimagery/rawtargetimages/setB/shared0907_nsd65873.png,nsdimagery_subj01_visB.tsv,visB,1,1,4,D,T,shared0907_nsd65873_cueT.png,,0.0,1.0,0.0,0,1,2.0,108.001812376999,112.002337329999,,,108.559605720002,557.793343003141
subj01,visB,vision,B,24,215,216,4,C,shared0842_nsd61178.png,5,/home/jovyan/NHprojectNSDimagery/data/nsd/nsddata/experiments/nsdimagery/rawtargetimages/setB/shared0842_nsd61178.png,nsdimagery_subj01_visB.tsv,visB,1,1,4,C,C,shared0842_nsd61178_cueC.png,,1.0,1.0,0.0,1,0,1.0,116.001731427001,120.002147055002,,,116.778417351001,776.685924000049
subj01,visB,vision,B,25,216,217,1,W,shared0385_nsd28752.png,5,/home/jovyan/NHprojectNSDimagery/data/nsd/nsddata/experiments/nsdimagery/rawtargetimages/setB/shared0385_nsd28752.png,nsdimagery_subj01_visB.tsv,visB,1,1,4,W,W,shared0385_nsd28752_cueW.png,,1.0,1.0,0.0,1,0,1.0,120.002147055002,124.001714911999,,,120.603161042,601.013986997714
subj01,visB,vision,B,26,217,218,4,C,shared0842_nsd61178.png,6,/home/jovyan/NHprojectNSDimagery/data/nsd/nsddata/experiments/nsdimagery/rawtargetimages/setB/shared0842_nsd61178.png,nsdimagery_subj01_visB.tsv,visB,1,1,4,C,D,shared0842_nsd61178_cueD.png,,0.0,1.0,0.0,0,1,2.0,124.001714911999,128.002390452999,,,124.851689372001,849.974460001249
subj01,visB,vision,B,27,218,219,6,T,shared0000_nsd00000.png,4,/home/jovyan/NHprojectNSDimagery/data/nsd/nsddata/experiments/nsdimagery/rawtargetimages/setB/shared0000_nsd00000.png,nsdimagery_subj01_visB.tsv,visB,1,1,4,T,K,shared0000_nsd00000_cueK.png,,0.0,1.0,0.0,0,1,2.0,128.002390452999,132.000990963999,,,128.660088380002,657.697927003028
subj01,visB,vision,B,28,219,220,1,W,shared0385_nsd28752.png,6,/home/jovyan/NHprojectNSDimagery/data/nsd/nsddata/experiments/nsdimagery/rawtargetimages/setB/shared0385_nsd28752.png,nsdimagery_subj01_visB.tsv,visB,1,1,4,W,W,shared0385_nsd28752_cueW.png,,1.0,1.0,0.0,1,0,1.0,132.000990963999,136.001650573002,,,132.677999210999,677.008246999321
subj01,visB,vision,B,29,220,221,3,B,shared0741_nsd53882.png,3,/home/jovyan/NHprojectNSDimagery/data/nsd/nsddata/experiments/nsdimagery/rawtargetimages/setB/shared0741_nsd53882.png,nsdimagery_subj01_visB.tsv,visB,1,1,4,B,K,shared0741_nsd53882_cueK.png,,0.0,1.0,0.0,0,1,2.0,136.001650573002,140.000683851998,,,136.666665615001,665.015041999141
subj01,visB,vision,B,30,221,222,1,W,shared0385_nsd28752.png,7,/home/jovyan/NHprojectNSDimagery/data/nsd/nsddata/experiments/nsdimagery/rawtargetimages/setB/shared0385_nsd28752.png,nsdimagery_subj01_visB.tsv,visB,1,1,4,W,C,shared0385_nsd28752_cueC.png,,0.0,1.0,0.0,0,1,2.0,140.000683851998,144.011604571999,,,140.83058677,829.902918001608
subj01,visB,vision,B,31,222,223,2,K,shared0413_nsd30857.png,5,/home/jovyan/NHprojectNSDimagery/data/nsd/nsddata/experiments/nsdimagery/rawtargetimages/setB/shared0413_nsd30857.png,nsdimagery_subj01_visB.tsv,visB,1,1,4,K,K,shared0413_nsd30857_cueK.png,,1.0,1.0,0.0,1,0,1.0,148.008407575999,152.015979660002,,,148.929612503001,921.204927002691
subj01,visB,vision,B,32,223,224,3,B,shared0741_nsd53882.png,4,/home/jovyan/NHprojectNSDimagery/data/nsd/nsddata/experiments/nsdimagery/rawtargetimages/setB/shared0741_nsd53882.png,nsdimagery_subj01_visB.tsv,visB,1,1,4,B,B,shared0741_nsd53882_cueB.png,,1.0,1.0,0.0,1,0,1.0,152.015979660002,156.016982994999,,,152.547824238001,531.844577999436
subj01,visB,vision,B,33,224,225,6,T,shared0000_nsd00000.png,5,/home/jovyan/NHprojectNSDimagery/data/nsd/nsddata/experiments/nsdimagery/rawtargetimages/setB/shared0000_nsd00000.png,nsdimagery_subj01_visB.tsv,visB,1,1,4,T,D,shared0000_nsd00000_cueD.png,,0.0,1.0,0.0,0,1,2.0,156.016982994999,160.016534365001,,,156.586441160001,569.458165002288
subj01,visB,vision,B,34,225,226,5,D,shared0907_nsd65873.png,7,/home/jovyan/NHprojectNSDimagery/data/nsd/nsddata/experiments/nsdimagery/rawtargetimages/setB/shared0907_nsd65873.png,nsdimagery_subj01_visB.tsv,visB,1,1,4,D,D,shared0907_nsd65873_cueD.png,,1.0,1.0,0.0,1,0,1.0,160.016534365001,164.015541617999,,,160.620204122999,603.669757998432
subj01,visB,vision,B,35,226,227,2,K,shared0413_nsd30857.png,6,/home/jovyan/NHprojectNSDimagery/data/nsd/nsddata/experiments/nsdimagery/rawtargetimages/setB/shared0413_nsd30857.png,nsdimagery_subj01_visB.tsv,visB,1,1,4,K,W,shared0413_nsd30857_cueW.png,,0.0,1.0,0.0,0,1,2.0,164.015541617999,168.015867374001,,,164.847492797002,831.951179003227
subj01,visB,vision,B,36,227,228,3,B,shared0741_nsd53882.png,5,/home/jovyan/NHprojectNSDimagery/data/nsd/nsddata/experiments/nsdimagery/rawtargetimages/setB/shared0741_nsd53882.png,nsdimagery_subj01_visB.tsv,visB,1,1,4,B,B,shared0741_nsd53882_cueB.png,,1.0,1.0,0.0,1,0,1.0,168.015867374001,172.015588974999,,,168.555565524999,539.698150998447
subj01,visB,vision,B,37,228,229,2,K,shared0413_nsd30857.png,7,/home/jovyan/NHprojectNSDimagery/data/nsd/nsddata/experiments/nsdimagery/rawtargetimages/setB/shared0413_nsd30857.png,nsdimagery_subj01_visB.tsv,visB,1,1,4,K,K,shared0413_nsd30857_cueK.png,,1.0,1.0,0.0,1,0,1.0,172.015588974999,176.028898003999,,,172.667991958002,652.402983003412
subj01,visB,vision,B,38,229,230,3,B,shared0741_nsd53882.png,6,/home/jovyan/NHprojectNSDimagery/data/nsd/nsddata/experiments/nsdimagery/rawtargetimages/setB/shared0741_nsd53882.png,nsdimagery_subj01_visB.tsv,visB,1,1,4,B,B,shared0741_nsd53882_cueB.png,,1.0,1.0,0.0,1,0,1.0,180.015520612,184.014913537001,,,180.653471266,637.950653999724
subj01,visB,vision,B,39,230,231,4,C,shared0842_nsd61178.png,7,/home/jovyan/NHprojectNSDimagery/data/nsd/nsddata/experiments/nsdimagery/rawtargetimages/setB/shared0842_nsd61178.png,nsdimagery_subj01_visB.tsv,visB,1,1,4,C,C,shared0842_nsd61178_cueC.png,,1.0,1.0,0.0,1,0,1.0,184.014913537001,188.014930576999,,,184.652189529999,637.275992998184
subj01,visB,vision,B,40,231,232,1,W,shared0385_nsd28752.png,8,/home/jovyan/NHprojectNSDimagery/data/nsd/nsddata/experiments/nsdimagery/rawtargetimages/setB/shared0385_nsd28752.png,nsdimagery_subj01_visB.tsv,visB,1,1,4,W,C,shared0385_nsd28752_cueC.png,,0.0,1.0,0.0,0,1,2.0,188.014930576999,192.014216324002,,,188.744095144,729.164567001135
subj01,visB,vision,B,41,232,233,6,T,shared0000_nsd00000.png,6,/home/jovyan/NHprojectNSDimagery/data/nsd/nsddata/experiments/nsdimagery/rawtargetimages/setB/shared0000_nsd00000.png,nsdimagery_subj01_visB.tsv,visB,1,1,4,T,T,shared0000_nsd00000_cueT.png,,1.0,1.0,0.0,1,0,1.0,192.014216324002,196.014675494,,,192.615280294001,601.063969999814
subj01,visB,vision,B,42,233,234,3,B,shared0741_nsd53882.png,7,/home/jovyan/NHprojectNSDimagery/data/nsd/nsddata/experiments/nsdimagery/rawtargetimages/setB/shared0741_nsd53882.png,nsdimagery_subj01_visB.tsv,visB,1,1,4,B,C,shared0741_nsd53882_cueC.png,,0.0,1.0,0.0,0,1,2.0,196.014675494,200.022116569999,,,196.603468425001,588.79293100108
subj01,visB,vision,B,43,234,235,4,C,shared0842_nsd61178.png,8,/home/jovyan/NHprojectNSDimagery/data/nsd/nsddata/experiments/nsdimagery/rawtargetimages/setB/shared0842_nsd61178.png,nsdimagery_subj01_visB.tsv,visB,1,1,4,C,D,shared0842_nsd61178_cueD.png,,0.0,1.0,0.0,0,1,2.0,200.022116569999,204.022291809,,,200.830213353001,808.096783002838
subj01,visB,vision,B,44,235,236,2,K,shared0413_nsd30857.png,8,/home/jovyan/NHprojectNSDimagery/data/nsd/nsddata/experiments/nsdimagery/rawtargetimages/setB/shared0413_nsd30857.png,nsdimagery_subj01_visB.tsv,visB,1,1,4,K,T,shared0413_nsd30857_cueT.png,,0.0,1.0,0.0,0,1,2.0,204.022291809,208.022786775,,,204.695764304,673.472495000169
subj01,visB,vision,B,45,236,237,6,T,shared0000_nsd00000.png,7,/home/jovyan/NHprojectNSDimagery/data/nsd/nsddata/experiments/nsdimagery/rawtargetimages/setB/shared0000_nsd00000.png,nsdimagery_subj01_visB.tsv,visB,1,1,4,T,C,shared0000_nsd00000_cueC.png,,0.0,1.0,0.0,0,1,2.0,208.022786775,212.021935690002,,,208.663250703001,640.463928000827
subj01,visB,vision,B,46,237,238,5,D,shared0907_nsd65873.png,8,/home/jovyan/NHprojectNSDimagery/data/nsd/nsddata/experiments/nsdimagery/rawtargetimages/setB/shared0907_nsd65873.png,nsdimagery_subj01_visB.tsv,visB,1,1,4,D,D,shared0907_nsd65873_cueD.png,,1.0,1.0,0.0,1,0,1.0,212.021935690002,216.021748224,,,212.622428458999,600.492768997356
subj01,visB,vision,B,47,238,239,3,B,shared0741_nsd53882.png,8,/home/jovyan/NHprojectNSDimagery/data/nsd/nsddata/experiments/nsdimagery/rawtargetimages/setB/shared0741_nsd53882.png,nsdimagery_subj01_visB.tsv,visB,1,1,4,B,D,shared0741_nsd53882_cueD.png,,0.0,1.0,0.0,0,1,2.0,216.021748224,220.021601307999,,,216.655753449999,634.005225998408
subj01,visB,vision,B,48,239,240,6,T,shared0000_nsd00000.png,8,/home/jovyan/NHprojectNSDimagery/data/nsd/nsddata/experiments/nsdimagery/rawtargetimages/setB/shared0000_nsd00000.png,nsdimagery_subj01_visB.tsv,visB,1,1,4,T,T,shared0000_nsd00000_cueT.png,,1.0,1.0,0.0,1,0,1.0,220.021601307999,224.0210338,,,220.699109427002,677.508119002596
subj01,imgB_1,imagery,B,1,336,337,1,W,shared0385_nsd28752.png,1,/home/jovyan/NHprojectNSDimagery/data/nsd/nsddata/experiments/nsdimagery/rawtargetimages/setB/shared0385_nsd28752.png,nsdimagery_subj01_imgB_1.tsv,imgB_1,1,1,6,W,W,blank00000_00000000_cueW.png,,,,0.0,1,0,1.0,12.0027019910012,16.002378055,,,14.3119826549992,2309.28066399792
subj01,imgB_1,imagery,B,2,337,338,4,C,shared0842_nsd61178.png,1,/home/jovyan/NHprojectNSDimagery/data/nsd/nsddata/experiments/nsdimagery/rawtargetimages/setB/shared0842_nsd61178.png,nsdimagery_subj01_imgB_1.tsv,imgB_1,1,1,6,C,C,blank00000_00000000_cueC.png,,,,0.0,1,0,1.0,16.002378055,19.9999066950004,,,17.5548450660026,1552.46701100259
subj01,imgB_1,imagery,B,3,338,339,1,W,shared0385_nsd28752.png,2,/home/jovyan/NHprojectNSDimagery/data/nsd/nsddata/experiments/nsdimagery/rawtargetimages/setB/shared0385_nsd28752.png,nsdimagery_subj01_imgB_1.tsv,imgB_1,1,1,6,W,W,blank00000_00000000_cueW.png,,,,0.0,1,0,1.0,19.9999066950004,24.0015710850021,,,21.6429594239999,1643.05272899946
subj01,imgB_1,imagery,B,4,339,340,5,D,shared0907_nsd65873.png,1,/home/jovyan/NHprojectNSDimagery/data/nsd/nsddata/experiments/nsdimagery/rawtargetimages/setB/shared0907_nsd65873.png,nsdimagery_subj01_imgB_1.tsv,imgB_1,1,1,6,D,D,blank00000_00000000_cueD.png,,,,0.0,1,0,1.0,24.0015710850021,28.0015323080006,,,25.5141104800023,1512.5393950002
subj01,imgB_1,imagery,B,5,340,341,6,T,shared0000_nsd00000.png,1,/home/jovyan/NHprojectNSDimagery/data/nsd/nsddata/experiments/nsdimagery/rawtargetimages/setB/shared0000_nsd00000.png,nsdimagery_subj01_imgB_1.tsv,imgB_1,1,1,6,T,T,blank00000_00000000_cueT.png,,,,0.0,1,0,1.0,28.0015323080006,32.0020593900008,,,29.545484151,1543.95184299938
subj01,imgB_1,imagery,B,6,341,342,3,B,shared0741_nsd53882.png,1,/home/jovyan/NHprojectNSDimagery/data/nsd/nsddata/experiments/nsdimagery/rawtargetimages/setB/shared0741_nsd53882.png,nsdimagery_subj01_imgB_1.tsv,imgB_1,1,1,6,B,B,blank00000_00000000_cueB.png,,,,0.0,1,0,1.0,32.0020593900008,36.000532222999,,,33.3155208810022,1313.46149100136
subj01,imgB_1,imagery,B,7,342,343,5,D,shared0907_nsd65873.png,2,/home/jovyan/NHprojectNSDimagery/data/nsd/nsddata/experiments/nsdimagery/rawtargetimages/setB/shared0907_nsd65873.png,nsdimagery_subj01_imgB_1.tsv,imgB_1,1,1,6,D,D,blank00000_00000000_cueD.png,,,,0.0,1,0,1.0,36.000532222999,40.0018699909997,,,37.3511369190019,1350.60469600285
subj01,imgB_1,imagery,B,8,343,344,2,K,shared0413_nsd30857.png,1,/home/jovyan/NHprojectNSDimagery/data/nsd/nsddata/experiments/nsdimagery/rawtargetimages/setB/shared0413_nsd30857.png,nsdimagery_subj01_imgB_1.tsv,imgB_1,1,1,6,K,K,blank00000_00000000_cueK.png,,,,0.0,1,0,1.0,40.0018699909997,44.0006409570015,,,41.5275755809998,1525.70559000014
subj01,imgB_1,imagery,B,9,344,345,1,W,shared0385_nsd28752.png,3,/home/jovyan/NHprojectNSDimagery/data/nsd/nsddata/experiments/nsdimagery/rawtargetimages/setB/shared0385_nsd28752.png,nsdimagery_subj01_imgB_1.tsv,imgB_1,1,1,6,W,W,blank00000_00000000_cueW.png,,,,0.0,1,0,1.0,44.0006409570015,48.0018056570007,,,45.5457772709997,1545.13631399823
subj01,imgB_1,imagery,B,10,345,346,2,K,shared0413_nsd30857.png,2,/home/jovyan/NHprojectNSDimagery/data/nsd/nsddata/experiments/nsdimagery/rawtargetimages/setB/shared0413_nsd30857.png,nsdimagery_subj01_imgB_1.tsv,imgB_1,1,1,6,K,K,blank00000_00000000_cueK.png,,,,0.0,1,0,1.0,52.0008053550009,56.0010962980014,,,53.3682836270018,1367.47827200088
subj01,imgB_1,imagery,B,11,346,347,4,C,shared0842_nsd61178.png,2,/home/jovyan/NHprojectNSDimagery/data/nsd/nsddata/experiments/nsdimagery/rawtargetimages/setB/shared0842_nsd61178.png,nsdimagery_subj01_imgB_1.tsv,imgB_1,1,1,6,C,C,blank00000_00000000_cueC.png,,,,0.0,1,0,1.0,56.0010962980014,59.9998462969997,,,57.4237863599992,1422.69006199786
subj01,imgB_1,imagery,B,12,347,348,2,K,shared0413_nsd30857.png,3,/home/jovyan/NHprojectNSDimagery/data/nsd/nsddata/experiments/nsdimagery/rawtargetimages/setB/shared0413_nsd30857.png,nsdimagery_subj01_imgB_1.tsv,imgB_1,1,1,6,K,K,blank00000_00000000_cueK.png,,,,0.0,1,0,1.0,59.9998462969997,64.0011190559999,,,61.4526094680004,1452.7631710007
subj01,imgB_1,imagery,B,13,348,349,6,T,shared0000_nsd00000.png,2,/home/jovyan/NHprojectNSDimagery/data/nsd/nsddata/experiments/nsdimagery/rawtargetimages/setB/shared0000_nsd00000.png,nsdimagery_subj01_imgB_1.tsv,imgB_1,1,1,6,T,T,blank00000_00000000_cueT.png,,,,0.0,1,0,1.0,64.0011190559999,68.0003273590009,,,65.6723226419999,1671.20358600005
subj01,imgB_1,imagery,B,14,349,350,5,D,shared0907_nsd65873.png,3,/home/jovyan/NHprojectNSDimagery/data/nsd/nsddata/experiments/nsdimagery/rawtargetimages/setB/shared0907_nsd65873.png,nsdimagery_subj01_imgB_1.tsv,imgB_1,1,1,6,D,D,blank00000_00000000_cueD.png,,,,0.0,1,0,1.0,68.0003273590009,72.0001307150014,,,69.4777688860013,1477.44152700034
subj01,imgB_1,imagery,B,15,350,351,4,C,shared0842_nsd61178.png,3,/home/jovyan/NHprojectNSDimagery/data/nsd/nsddata/experiments/nsdimagery/rawtargetimages/setB/shared0842_nsd61178.png,nsdimagery_subj01_imgB_1.tsv,imgB_1,1,1,6,C,C,blank00000_00000000_cueC.png,,,,0.0,1,0,1.0,72.0001307150014,75.9992038570017,,,73.8200355049994,1819.90478999796
subj01,imgB_1,imagery,B,16,351,352,1,W,shared0385_nsd28752.png,4,/home/jovyan/NHprojectNSDimagery/data/nsd/nsddata/experiments/nsdimagery/rawtargetimages/setB/shared0385_nsd28752.png,nsdimagery_subj01_imgB_1.tsv,imgB_1,1,1,6,W,W,blank00000_00000000_cueW.png,,,,0.0,1,0,1.0,75.9992038570017,80.0019035130026,,,77.9138947190004,1914.69086199868
subj01,imgB_1,imagery,B,17,352,353,4,C,shared0842_nsd61178.png,4,/home/jovyan/NHprojectNSDimagery/data/nsd/nsddata/experiments/nsdimagery/rawtargetimages/setB/shared0842_nsd61178.png,nsdimagery_subj01_imgB_1.tsv,imgB_1,1,1,6,C,C,blank00000_00000000_cueC.png,,,,0.0,1,0,1.0,84.0026196610015,88.0017327640016,,,85.6592305400009,1656.61087899935
subj01,imgB_1,imagery,B,18,353,354,5,D,shared0907_nsd65873.png,4,/home/jovyan/NHprojectNSDimagery/data/nsd/nsddata/experiments/nsdimagery/rawtargetimages/setB/shared0907_nsd65873.png,nsdimagery_subj01_imgB_1.tsv,imgB_1,1,1,6,D,D,blank00000_00000000_cueD.png,,,,0.0,1,0,1.0,88.0017327640016,92.0028168610006,,,89.2436768129992,1241.94404899754
subj01,imgB_1,imagery,B,19,354,355,3,B,shared0741_nsd53882.png,2,/home/jovyan/NHprojectNSDimagery/data/nsd/nsddata/experiments/nsdimagery/rawtargetimages/setB/shared0741_nsd53882.png,nsdimagery_subj01_imgB_1.tsv,imgB_1,1,1,6,B,B,blank00000_00000000_cueB.png,,,,0.0,1,0,1.0,92.0028168610006,96.0028591320006,,,93.2558932440006,1253.07638300001
subj01,imgB_1,imagery,B,20,355,356,2,K,shared0413_nsd30857.png,4,/home/jovyan/NHprojectNSDimagery/data/nsd/nsddata/experiments/nsdimagery/rawtargetimages/setB/shared0413_nsd30857.png,nsdimagery_subj01_imgB_1.tsv,imgB_1,1,1,6,K,K,blank00000_00000000_cueK.png,,,,0.0,1,0,1.0,96.0028591320006,100.002446625,,,97.3605395930026,1357.68046100202
subj01,imgB_1,imagery,B,21,356,357,5,D,shared0907_nsd65873.png,5,/home/jovyan/NHprojectNSDimagery/data/nsd/nsddata/experiments/nsdimagery/rawtargetimages/setB/shared0907_nsd65873.png,nsdimagery_subj01_imgB_1.tsv,imgB_1,1,1,6,D,D,blank00000_00000000_cueD.png,,,,0.0,1,0,1.0,100.002446625,104.00298854,,,101.401179154,1398.73252899997
subj01,imgB_1,imagery,B,22,357,358,6,T,shared0000_nsd00000.png,3,/home/jovyan/NHprojectNSDimagery/data/nsd/nsddata/experiments/nsdimagery/rawtargetimages/setB/shared0000_nsd00000.png,nsdimagery_subj01_imgB_1.tsv,imgB_1,1,1,6,T,T,blank00000_00000000_cueT.png,,,,0.0,1,0,1.0,104.00298854,108.003149914999,,,105.353273573,1350.28503300055
subj01,imgB_1,imagery,B,23,358,359,5,D,shared0907_nsd65873.png,6,/home/jovyan/NHprojectNSDimagery/data/nsd/nsddata/experiments/nsdimagery/rawtargetimages/setB/shared0907_nsd65873.png,nsdimagery_subj01_imgB_1.tsv,imgB_1,1,1,6,D,D,blank00000_00000000_cueD.png,,,,0.0,1,0,1.0,108.003149914999,112.003965920001,,,109.154384513,1151.23459800088
subj01,imgB_1,imagery,B,24,359,360,4,C,shared0842_nsd61178.png,5,/home/jovyan/NHprojectNSDimagery/data/nsd/nsddata/experiments/nsdimagery/rawtargetimages/setB/shared0842_nsd61178.png,nsdimagery_subj01_imgB_1.tsv,imgB_1,1,1,6,C,C,blank00000_00000000_cueC.png,,,,0.0,1,0,1.0,116.005939860002,120.020020618002,,,117.904038683002,1898.0988229996
subj01,imgB_1,imagery,B,25,360,361,1,W,shared0385_nsd28752.png,5,/home/jovyan/NHprojectNSDimagery/data/nsd/nsddata/experiments/nsdimagery/rawtargetimages/setB/shared0385_nsd28752.png,nsdimagery_subj01_imgB_1.tsv,imgB_1,1,1,6,W,W,blank00000_00000000_cueW.png,,,,0.0,1,0,1.0,120.020020618002,124.005578696,,,121.977164534001,1957.14391599904
subj01,imgB_1,imagery,B,26,361,362,4,C,shared0842_nsd61178.png,6,/home/jovyan/NHprojectNSDimagery/data/nsd/nsddata/experiments/nsdimagery/rawtargetimages/setB/shared0842_nsd61178.png,nsdimagery_subj01_imgB_1.tsv,imgB_1,1,1,6,C,C,blank00000_00000000_cueC.png,,,,0.0,1,0,1.0,124.005578696,128.004639092,,,125.900476358001,1894.89766200131
subj01,imgB_1,imagery,B,27,362,363,6,T,shared0000_nsd00000.png,4,/home/jovyan/NHprojectNSDimagery/data/nsd/nsddata/experiments/nsdimagery/rawtargetimages/setB/shared0000_nsd00000.png,nsdimagery_subj01_imgB_1.tsv,imgB_1,1,1,6,T,T,blank00000_00000000_cueT.png,,,,0.0,1,0,1.0,128.004639092,132.005199390002,,,129.688466095002,1683.82700300208
subj01,imgB_1,imagery,B,28,363,364,1,W,shared0385_nsd28752.png,6,/home/jovyan/NHprojectNSDimagery/data/nsd/nsddata/experiments/nsdimagery/rawtargetimages/setB/shared0385_nsd28752.png,nsdimagery_subj01_imgB_1.tsv,imgB_1,1,1,6,W,W,blank00000_00000000_cueW.png,,,,0.0,1,0,1.0,132.005199390002,136.004392727002,,,133.919786145001,1914.58675499962
subj01,imgB_1,imagery,B,29,364,365,3,B,shared0741_nsd53882.png,3,/home/jovyan/NHprojectNSDimagery/data/nsd/nsddata/experiments/nsdimagery/rawtargetimages/setB/shared0741_nsd53882.png,nsdimagery_subj01_imgB_1.tsv,imgB_1,1,1,6,B,B,blank00000_00000000_cueB.png,,,,0.0,1,0,1.0,136.004392727002,140.004943595002,,,137.757052426001,1752.6596989992
subj01,imgB_1,imagery,B,30,365,366,1,W,shared0385_nsd28752.png,7,/home/jovyan/NHprojectNSDimagery/data/nsd/nsddata/experiments/nsdimagery/rawtargetimages/setB/shared0385_nsd28752.png,nsdimagery_subj01_imgB_1.tsv,imgB_1,1,1,6,W,W,blank00000_00000000_cueW.png,,,,0.0,1,0,1.0,140.004943595002,144.004360940002,,,141.623222044,1618.27844899744
subj01,imgB_1,imagery,B,31,366,367,2,K,shared0413_nsd30857.png,5,/home/jovyan/NHprojectNSDimagery/data/nsd/nsddata/experiments/nsdimagery/rawtargetimages/setB/shared0413_nsd30857.png,nsdimagery_subj01_imgB_1.tsv,imgB_1,1,1,6,K,K,blank00000_00000000_cueK.png,,,,0.0,1,0,1.0,148.003913012002,152.004688599001,,,149.616900626999,1612.98761499711
subj01,imgB_1,imagery,B,32,367,368,3,B,shared0741_nsd53882.png,4,/home/jovyan/NHprojectNSDimagery/data/nsd/nsddata/experiments/nsdimagery/rawtargetimages/setB/shared0741_nsd53882.png,nsdimagery_subj01_imgB_1.tsv,imgB_1,1,1,6,B,B,blank00000_00000000_cueB.png,,,,0.0,1,0,1.0,152.004688599001,156.004626952999,,,153.535363062001,1530.67446299974
subj01,imgB_1,imagery,B,33,368,369,6,T,shared0000_nsd00000.png,5,/home/jovyan/NHprojectNSDimagery/data/nsd/nsddata/experiments/nsdimagery/rawtargetimages/setB/shared0000_nsd00000.png,nsdimagery_subj01_imgB_1.tsv,imgB_1,1,1,6,T,T,blank00000_00000000_cueT.png,,,,0.0,1,0,1.0,156.004626952999,160.004876907002,,,158.134992194002,2130.36524100244
subj01,imgB_1,imagery,B,34,369,370,5,D,shared0907_nsd65873.png,7,/home/jovyan/NHprojectNSDimagery/data/nsd/nsddata/experiments/nsdimagery/rawtargetimages/setB/shared0907_nsd65873.png,nsdimagery_subj01_imgB_1.tsv,imgB_1,1,1,6,D,D,blank00000_00000000_cueD.png,,,,0.0,1,0,1.0,160.004876907002,164.003460585001,,,162.023998553999,2019.12164699752
subj01,imgB_1,imagery,B,35,370,371,2,K,shared0413_nsd30857.png,6,/home/jovyan/NHprojectNSDimagery/data/nsd/nsddata/experiments/nsdimagery/rawtargetimages/setB/shared0413_nsd30857.png,nsdimagery_subj01_imgB_1.tsv,imgB_1,1,1,6,K,K,blank00000_00000000_cueK.png,,,,0.0,1,0,1.0,164.003460585001,168.004750395001,,,165.930802488001,1927.34190299961
subj01,imgB_1,imagery,B,36,371,372,3,B,shared0741_nsd53882.png,5,/home/jovyan/NHprojectNSDimagery/data/nsd/nsddata/experiments/nsdimagery/rawtargetimages/setB/shared0741_nsd53882.png,nsdimagery_subj01_imgB_1.tsv,imgB_1,1,1,6,B,B,blank00000_00000000_cueB.png,,,,0.0,1,0,1.0,168.004750395001,172.003534751002,,,169.816535130001,1811.7847350004
subj01,imgB_1,imagery,B,37,372,373,2,K,shared0413_nsd30857.png,7,/home/jovyan/NHprojectNSDimagery/data/nsd/nsddata/experiments/nsdimagery/rawtargetimages/setB/shared0413_nsd30857.png,nsdimagery_subj01_imgB_1.tsv,imgB_1,1,1,6,K,K,blank00000_00000000_cueK.png,,,,0.0,1,0,1.0,172.003534751002,176.003512802999,,,173.571081992999,1567.54724199709
subj01,imgB_1,imagery,B,38,373,374,3,B,shared0741_nsd53882.png,6,/home/jovyan/NHprojectNSDimagery/data/nsd/nsddata/experiments/nsdimagery/rawtargetimages/setB/shared0741_nsd53882.png,nsdimagery_subj01_imgB_1.tsv,imgB_1,1,1,6,B,B,blank00000_00000000_cueB.png,,,,0.0,1,0,1.0,180.002667258002,184.003657261001,,,181.590735887999,1588.068629997
subj01,imgB_1,imagery,B,39,374,375,4,C,shared0842_nsd61178.png,7,/home/jovyan/NHprojectNSDimagery/data/nsd/nsddata/experiments/nsdimagery/rawtargetimages/setB/shared0842_nsd61178.png,nsdimagery_subj01_imgB_1.tsv,imgB_1,1,1,6,C,C,blank00000_00000000_cueC.png,,,,0.0,1,0,1.0,184.003657261001,188.002560075001,,,185.789265154999,1785.60789399853
subj01,imgB_1,imagery,B,40,375,376,1,W,shared0385_nsd28752.png,8,/home/jovyan/NHprojectNSDimagery/data/nsd/nsddata/experiments/nsdimagery/rawtargetimages/setB/shared0385_nsd28752.png,nsdimagery_subj01_imgB_1.tsv,imgB_1,1,1,6,W,W,blank00000_00000000_cueW.png,,,,0.0,0,1,2.0,188.002560075001,192.003200024999,,,190.283826704999,2281.26662999784
subj01,imgB_1,imagery,B,41,376,377,6,T,shared0000_nsd00000.png,6,/home/jovyan/NHprojectNSDimagery/data/nsd/nsddata/experiments/nsdimagery/rawtargetimages/setB/shared0000_nsd00000.png,nsdimagery_subj01_imgB_1.tsv,imgB_1,1,1,6,T,T,blank00000_00000000_cueT.png,,,,0.0,1,0,1.0,192.003200024999,196.001855882001,,,194.050378122,2047.17809700014
subj01,imgB_1,imagery,B,42,377,378,3,B,shared0741_nsd53882.png,7,/home/jovyan/NHprojectNSDimagery/data/nsd/nsddata/experiments/nsdimagery/rawtargetimages/setB/shared0741_nsd53882.png,nsdimagery_subj01_imgB_1.tsv,imgB_1,1,1,6,B,B,blank00000_00000000_cueB.png,,,,0.0,1,0,1.0,196.001855882001,200.004140303001,,,197.381247359001,1379.39147699944
subj01,imgB_1,imagery,B,43,378,379,4,C,shared0842_nsd61178.png,8,/home/jovyan/NHprojectNSDimagery/data/nsd/nsddata/experiments/nsdimagery/rawtargetimages/setB/shared0842_nsd61178.png,nsdimagery_subj01_imgB_1.tsv,imgB_1,1,1,6,C,C,blank00000_00000000_cueC.png,,,,0.0,0,1,2.0,200.004140303001,204.005784437002,,,202.689809948002,2685.66964500133
subj01,imgB_1,imagery,B,44,379,380,2,K,shared0413_nsd30857.png,8,/home/jovyan/NHprojectNSDimagery/data/nsd/nsddata/experiments/nsdimagery/rawtargetimages/setB/shared0413_nsd30857.png,nsdimagery_subj01_imgB_1.tsv,imgB_1,1,1,6,K,K,blank00000_00000000_cueK.png,,,,0.0,1,0,1.0,204.005784437002,208.006745832001,,,206.365006171,2359.2217339974
subj01,imgB_1,imagery,B,45,380,381,6,T,shared0000_nsd00000.png,7,/home/jovyan/NHprojectNSDimagery/data/nsd/nsddata/experiments/nsdimagery/rawtargetimages/setB/shared0000_nsd00000.png,nsdimagery_subj01_imgB_1.tsv,imgB_1,1,1,6,T,T,blank00000_00000000_cueT.png,,,,0.0,1,0,1.0,208.006745832001,212.005614176,,,209.394466572001,1387.72074000008
subj01,imgB_1,imagery,B,46,381,382,5,D,shared0907_nsd65873.png,8,/home/jovyan/NHprojectNSDimagery/data/nsd/nsddata/experiments/nsdimagery/rawtargetimages/setB/shared0907_nsd65873.png,nsdimagery_subj01_imgB_1.tsv,imgB_1,1,1,6,D,D,blank00000_00000000_cueD.png,,,,0.0,1,0,1.0,212.005614176,216.007463155001,,,213.001086849999,995.472673999757
subj01,imgB_1,imagery,B,47,382,383,3,B,shared0741_nsd53882.png,8,/home/jovyan/NHprojectNSDimagery/data/nsd/nsddata/experiments/nsdimagery/rawtargetimages/setB/shared0741_nsd53882.png,nsdimagery_subj01_imgB_1.tsv,imgB_1,1,1,6,B,B,blank00000_00000000_cueB.png,,,,0.0,1,0,1.0,216.007463155001,220.00661529,,,217.222360903001,1214.8977479992
subj01,imgB_1,imagery,B,48,383,384,6,T,shared0000_nsd00000.png,8,/home/jovyan/NHprojectNSDimagery/data/nsd/nsddata/experiments/nsdimagery/rawtargetimages/setB/shared0000_nsd00000.png,nsdimagery_subj01_imgB_1.tsv,imgB_1,1,1,6,T,T,blank00000_00000000_cueT.png,,,,0.0,1,0,1.0,220.00661529,224.007761778001,,,221.183097039,1176.48174900023
subj01,visC,vision,C,1,384,385,6,F,fruit,1,,nsdimagery_subj01_visC.tsv,visC,1,1,7,F,Y,shared0491_nsd37225_cueY.png,,0.0,1.0,0.0,0,1,2.0,11.999424859001,15.998575081001,,,13.5489363850029,1549.51152600188
subj01,visC,vision,C,2,385,386,1,S,stripes,1,,nsdimagery_subj01_visC.tsv,visC,1,1,7,S,M,shared0680_nsd49623_cueM.png,,0.0,1.0,0.0,0,1,2.0,15.998575081001,19.9987242070019,,,17.3911487240002,1392.5736429992
subj01,visC,vision,C,3,386,387,5,N,banana,1,,nsdimagery_subj01_visC.tsv,visC,1,1,7,N,N,shared0113_nsd09805_cueN.png,,1.0,0.0,0.0,0,1,2.0,19.9987242070019,23.9988795530007,,,22.2981170060011,2299.39279899918
subj01,visC,vision,C,4,387,388,1,S,stripes,2,,nsdimagery_subj01_visC.tsv,visC,1,1,7,S,S,shared0457_nsd34127_cueS.png,,1.0,1.0,0.0,1,0,1.0,23.9988795530007,27.9985088390022,,,25.3273150870009,1328.43553400016
subj01,visC,vision,C,5,388,389,5,N,banana,2,,nsdimagery_subj01_visC.tsv,visC,1,1,7,N,N,shared0560_nsd42215_cueN.png,,1.0,1.0,0.0,1,0,1.0,27.9985088390022,31.998874279001,,,29.1879993180009,1189.49047899878
subj01,visC,vision,C,6,389,390,4,Y,yellow,1,,nsdimagery_subj01_visC.tsv,visC,1,1,7,Y,Y,shared0516_nsd39059_cueY.png,,1.0,1.0,0.0,2,0,1.0,31.998874279001,35.9983347280031,,,32.7359578350006,737.083555999561
subj01,visC,vision,C,7,390,391,3,M,mammal,1,,nsdimagery_subj01_visC.tsv,visC,1,1,7,M,S,shared0496_nsd37802_cueS.png,,0.0,1.0,0.0,0,1,2.0,35.9983347280031,39.9988819680002,,,37.1818527940013,1183.51806599821
subj01,visC,vision,C,8,391,392,4,Y,yellow,2,,nsdimagery_subj01_visC.tsv,visC,1,1,7,Y,S,shared0071_nsd07040_cueS.png,,0.0,1.0,0.0,0,1,2.0,39.9988819680002,43.9984712270016,,,41.3635389560004,1364.65698800021
subj01,visC,vision,C,9,392,393,2,Z,zebra,1,,nsdimagery_subj01_visC.tsv,visC,1,1,7,Z,Z,shared0223_nsd18484_cueZ.png,,1.0,1.0,0.0,1,0,1.0,43.9984712270016,47.9982382170019,,,44.8964464000019,897.975173000304
subj01,visC,vision,C,10,393,394,4,Y,yellow,3,,nsdimagery_subj01_visC.tsv,visC,1,1,7,Y,N,shared0295_nsd23716_cueN.png,,0.0,1.0,0.0,0,1,2.0,51.9975090940025,55.9987397210025,,,53.7025807700011,1705.07167599862
subj01,visC,vision,C,11,394,395,2,Z,zebra,2,,nsdimagery_subj01_visC.tsv,visC,1,1,7,Z,Z,shared0156_nsd12799_cueZ.png,,1.0,1.0,0.0,1,0,1.0,55.9987397210025,59.9977417720002,,,56.5827527410001,584.013019997656
subj01,visC,vision,C,12,395,396,3,M,mammal,2,,nsdimagery_subj01_visC.tsv,visC,1,1,7,M,M,shared0070_nsd07008_cueM.png,,1.0,1.0,0.0,1,0,1.0,59.9977417720002,63.9975517530002,,,60.7957180190024,797.976247002225
subj01,visC,vision,C,13,396,397,5,N,banana,3,,nsdimagery_subj01_visC.tsv,visC,1,1,7,N,Z,shared0336_nsd25742_cueZ.png,,0.0,1.0,0.0,0,1,2.0,63.9975517530002,67.9966387280001,,,65.0690183800034,1071.46662700325
subj01,visC,vision,C,14,397,398,6,F,fruit,2,,nsdimagery_subj01_visC.tsv,visC,1,1,7,F,F,shared0945_nsd68815_cueF.png,,1.0,1.0,0.0,1,0,1.0,67.9966387280001,71.9966876170001,,,68.774443530001,777.804802000901
subj01,visC,vision,C,15,398,399,2,Z,zebra,3,,nsdimagery_subj01_visC.tsv,visC,1,1,7,Z,N,shared0851_nsd61802_cueN.png,,0.0,1.0,0.0,0,1,2.0,71.9966876170001,75.9967153840007,,,72.7932606250033,796.573008003179
subj01,visC,vision,C,16,399,400,6,F,fruit,3,,nsdimagery_subj01_visC.tsv,visC,1,1,7,F,F,shared0599_nsd44139_cueF.png,,1.0,1.0,0.0,1,0,1.0,75.9967153840007,79.9959372620033,,,76.7538015999999,757.086215999152
subj01,visC,vision,C,17,400,401,1,S,stripes,3,,nsdimagery_subj01_visC.tsv,visC,1,1,7,S,Z,shared0584_nsd43446_cueZ.png,,0.0,1.0,0.0,0,1,2.0,83.9959185630032,87.9962358390003,,,85.0556607560029,1059.74219299969
subj01,visC,vision,C,18,401,402,3,M,mammal,3,,nsdimagery_subj01_visC.tsv,visC,1,1,7,M,M,shared0943_nsd68472_cueM.png,,1.0,1.0,0.0,1,0,1.0,87.9962358390003,91.9960937370015,,,88.9086055350017,912.369696001406
subj01,visC,vision,C,19,402,403,1,S,stripes,4,,nsdimagery_subj01_visC.tsv,visC,1,1,7,S,S,shared0129_nsd10611_cueS.png,,1.0,1.0,1.0,1,1,1.0,91.9960937370015,95.9950437280022,,,93.7401330090033,1744.03927200183
subj01,visC,vision,C,20,403,404,6,F,fruit,4,,nsdimagery_subj01_visC.tsv,visC,1,1,7,F,F,shared0031_nsd04437_cueF.png,,1.0,1.0,0.0,1,0,1.0,95.9950437280022,99.9951339550025,,,96.6892506950026,694.206967000355
subj01,visC,vision,C,21,404,405,4,Y,yellow,4,,nsdimagery_subj01_visC.tsv,visC,1,1,7,Y,F,shared0637_nsd46463_cueF.png,,0.0,1.0,0.0,0,1,2.0,99.9951339550025,103.994894907002,,,100.948961257003,953.827302000718
subj01,visC,vision,C,22,405,406,3,M,mammal,4,,nsdimagery_subj01_visC.tsv,visC,1,1,7,M,Z,shared0229_nsd19075_cueZ.png,,0.0,1.0,1.0,1,1,2.0,103.994894907002,107.994747000001,,,105.071630003,1076.73509599772
subj01,visC,vision,C,23,406,407,6,F,fruit,5,,nsdimagery_subj01_visC.tsv,visC,1,1,7,F,Y,shared0326_nsd25372_cueY.png,,0.0,1.0,0.0,0,1,2.0,107.994747000001,111.995366524003,,,109.124023362001,1129.27636200038
subj01,visC,vision,C,24,407,408,5,N,banana,4,,nsdimagery_subj01_visC.tsv,visC,1,1,7,N,S,shared0725_nsd52932_cueS.png,,0.0,0.0,1.0,1,1,1.0,111.995366524003,115.994494682003,,,114.982791628001,2987.42510399825
subj01,visC,vision,C,25,408,409,4,Y,yellow,5,,nsdimagery_subj01_visC.tsv,visC,1,1,7,Y,Y,shared0765_nsd55681_cueY.png,,1.0,1.0,0.0,1,0,1.0,115.994494682003,119.994597922003,,,116.938247123002,943.752440998651
subj01,visC,vision,C,26,409,410,6,F,fruit,6,,nsdimagery_subj01_visC.tsv,visC,1,1,7,F,F,shared0153_nsd12635_cueF.png,,1.0,1.0,0.0,1,0,1.0,123.994373116002,127.993715494002,,,125.659302562002,1664.92944600031
subj01,visC,vision,C,27,410,411,2,Z,zebra,4,,nsdimagery_subj01_visC.tsv,visC,1,1,7,Z,Y,shared0910_nsd66005_cueY.png,,0.0,1.0,0.0,0,1,2.0,127.993715494002,131.993594037001,,,128.849793015001,856.077520998952
subj01,visC,vision,C,28,411,412,1,S,stripes,5,,nsdimagery_subj01_visC.tsv,visC,1,1,7,S,S,shared0351_nsd26599_cueS.png,,1.0,1.0,0.0,1,0,1.0,131.993594037001,135.993223803001,,,133.325773017001,1332.1789799993
subj01,visC,vision,C,29,412,413,4,Y,yellow,6,,nsdimagery_subj01_visC.tsv,visC,1,1,7,Y,Y,shared0079_nsd07655_cueY.png,,1.0,1.0,0.0,1,0,1.0,135.993223803001,139.993625646002,,,136.747135747002,753.91194400072
subj01,visC,vision,C,30,413,414,1,S,stripes,6,,nsdimagery_subj01_visC.tsv,visC,1,1,7,S,S,shared0522_nsd39510_cueS.png,,1.0,1.0,0.0,1,0,1.0,139.993625646002,143.993471873,,,140.784349554,790.723907997744
subj01,visC,vision,C,31,414,415,2,Z,zebra,5,,nsdimagery_subj01_visC.tsv,visC,1,1,7,Z,F,shared0566_nsd42643_cueF.png,,0.0,1.0,0.0,0,1,2.0,143.993471873,147.993502815003,,,144.880925835001,887.453962001018
subj01,visC,vision,C,32,415,416,3,M,mammal,5,,nsdimagery_subj01_visC.tsv,visC,1,1,7,M,S,shared0272_nsd22264_cueS.png,,0.0,1.0,0.0,0,1,2.0,147.993502815003,151.993262977001,,,148.873259109001,879.756293998071
subj01,visC,vision,C,33,416,417,4,Y,yellow,7,,nsdimagery_subj01_visC.tsv,visC,1,1,7,Y,F,shared0350_nsd26459_cueF.png,,0.0,1.0,0.0,0,1,2.0,151.993262977001,155.992743131002,,,152.998600073002,1005.33709600131
subj01,visC,vision,C,34,417,418,1,S,stripes,7,,nsdimagery_subj01_visC.tsv,visC,1,1,7,S,M,shared0835_nsd60726_cueM.png,,0.0,1.0,0.0,0,1,2.0,155.992743131002,159.992702246003,,,157.421667118,1428.92398699769
subj01,visC,vision,C,35,418,419,3,M,mammal,6,,nsdimagery_subj01_visC.tsv,visC,1,1,7,M,M,shared0148_nsd12076_cueM.png,,1.0,1.0,0.0,1,0,1.0,163.992579999001,167.99163914,,,164.874410362001,881.830362999608
subj01,visC,vision,C,36,419,420,2,Z,zebra,6,,nsdimagery_subj01_visC.tsv,visC,1,1,7,Z,N,shared0338_nsd25882_cueN.png,,0.0,1.0,0.0,0,1,2.0,167.99163914,171.992289881,,,169.265488140001,1273.84900000106
subj01,visC,vision,C,37,420,421,5,N,banana,5,,nsdimagery_subj01_visC.tsv,visC,1,1,7,N,N,shared0718_nsd52395_cueN.png,,1.0,1.0,0.0,1,0,1.0,171.992289881,176.000112229001,,,172.872388756001,880.09887500084
subj01,visC,vision,C,38,421,422,2,Z,zebra,7,,nsdimagery_subj01_visC.tsv,visC,1,1,7,Z,Z,shared0563_nsd42300_cueZ.png,,1.0,1.0,0.0,1,0,1.0,176.000112229001,179.9998796,,,176.667553949002,667.441720001079
subj01,visC,vision,C,39,422,423,5,N,banana,6,,nsdimagery_subj01_visC.tsv,visC,1,1,7,N,M,shared0355_nsd26910_cueM.png,,0.0,1.0,0.0,0,1,2.0,179.9998796,183.999212840001,,,181.004290970002,1004.41137000234
subj01,visC,vision,C,40,423,424,2,Z,zebra,8,,nsdimagery_subj01_visC.tsv,visC,1,1,7,Z,Z,shared0664_nsd48509_cueZ.png,,1.0,1.0,0.0,1,0,1.0,183.999212840001,188.002994568,,,184.587171156003,587.958316002187
subj01,visC,vision,C,41,424,425,5,N,banana,7,,nsdimagery_subj01_visC.tsv,visC,1,1,7,N,N,shared0415_nsd30923_cueN.png,,1.0,1.0,0.0,1,0,1.0,188.002994568,192.019771099003,,,188.831267088,828.27252000061
subj01,visC,vision,C,42,425,426,6,F,fruit,7,,nsdimagery_subj01_visC.tsv,visC,1,1,7,F,N,shared0248_nsd20634_cueN.png,,0.0,1.0,0.0,0,1,2.0,196.002931068,200.005728784003,,,196.887668092,884.73702400006
subj01,visC,vision,C,43,426,427,1,S,stripes,8,,nsdimagery_subj01_visC.tsv,visC,1,1,7,S,Y,shared0010_nsd03387_cueY.png,,0.0,1.0,0.0,0,1,2.0,200.005728784003,204.007369942003,,,201.204208366002,1198.47958199898
subj01,visC,vision,C,44,427,428,4,Y,yellow,8,,nsdimagery_subj01_visC.tsv,visC,1,1,7,Y,Y,shared0651_nsd47322_cueY.png,,1.0,1.0,0.0,1,0,1.0,204.007369942003,208.020336273003,,,204.952623754001,945.253811998555
subj01,visC,vision,C,45,428,429,5,N,banana,8,,nsdimagery_subj01_visC.tsv,visC,1,1,7,N,Z,shared0490_nsd37222_cueZ.png,,0.0,1.0,0.0,0,1,2.0,208.020336273003,212.015351213002,,,208.768687411,748.351137997815
subj01,visC,vision,C,46,429,430,3,M,mammal,7,,nsdimagery_subj01_visC.tsv,visC,1,1,7,M,F,shared0456_nsd34090_cueF.png,,0.0,1.0,0.0,0,1,2.0,212.015351213002,216.020709056003,,,212.954297992001,938.946778998798
subj01,visC,vision,C,47,430,431,6,F,fruit,8,,nsdimagery_subj01_visC.tsv,visC,1,1,7,F,M,shared0123_nsd10245_cueM.png,,0.0,1.0,0.0,0,1,2.0,216.020709056003,220.015391457,,,217.588288211002,1567.57915499838
subj01,visC,vision,C,48,431,432,3,M,mammal,8,,nsdimagery_subj01_visC.tsv,visC,1,1,7,M,M,shared0088_nsd08205_cueM.png,,1.0,1.0,0.0,1,0,1.0,220.015391457,224.020997559001,,,220.771765510002,756.374053002219
subj01,imgC_1,imagery,C,1,528,529,6,F,fruit,1,,nsdimagery_subj01_imgC_1.tsv,imgC_1,1,1,9,F,F,blank00000_00000000_cueF.png,,,,0.0,1,0,1.0,11.9996381979981,15.9999231440015,,,15.1568411449989,3157.20294700077
subj01,imgC_1,imagery,C,2,529,530,1,S,stripes,1,,nsdimagery_subj01_imgC_1.tsv,imgC_1,1,1,9,S,S,blank00000_00000000_cueS.png,,,,0.0,1,0,1.0,15.9999231440015,20.000009121999,,,17.838322571999,1838.3994279975
subj01,imgC_1,imagery,C,3,530,531,5,N,banana,1,,nsdimagery_subj01_imgC_1.tsv,imgC_1,1,1,9,N,N,blank00000_00000000_cueN.png,,,,0.0,1,0,1.0,20.000009121999,24.0082671269993,,,21.4949416439995,1494.93252200045
subj01,imgC_1,imagery,C,4,531,532,1,S,stripes,2,,nsdimagery_subj01_imgC_1.tsv,imgC_1,1,1,9,S,S,blank00000_00000000_cueS.png,,,,0.0,1,0,1.0,24.0082671269993,28.0075766709997,,,25.3376297739997,1329.36264700038
subj01,imgC_1,imagery,C,5,532,533,5,N,banana,2,,nsdimagery_subj01_imgC_1.tsv,imgC_1,1,1,9,N,N,blank00000_00000000_cueN.png,,,,0.0,1,0,1.0,28.0075766709997,32.0071574549984,,,29.575783166998,1568.20649599831
subj01,imgC_1,imagery,C,6,533,534,4,Y,yellow,1,,nsdimagery_subj01_imgC_1.tsv,imgC_1,1,1,9,Y,Y,blank00000_00000000_cueY.png,,,,0.0,1,0,1.0,32.0071574549984,36.0072855959988,,,33.664997156,1657.83970100165
subj01,imgC_1,imagery,C,7,534,535,3,M,mammal,1,,nsdimagery_subj01_imgC_1.tsv,imgC_1,1,1,9,M,M,blank00000_00000000_cueM.png,,,,0.0,1,0,1.0,36.0072855959988,40.0068160759984,,,37.6109453089994,1603.65971300052
subj01,imgC_1,imagery,C,8,535,536,4,Y,yellow,2,,nsdimagery_subj01_imgC_1.tsv,imgC_1,1,1,9,Y,Y,blank00000_00000000_cueY.png,,,,0.0,1,0,1.0,40.0068160759984,44.0064723489995,,,41.8186160490004,1811.79997300205
subj01,imgC_1,imagery,C,9,536,537,2,Z,zebra,1,,nsdimagery_subj01_imgC_1.tsv,imgC_1,1,1,9,Z,Z,blank00000_00000000_cueZ.png,,,,0.0,1,0,1.0,44.0064723489995,48.0146799819995,,,45.8546311919999,1848.15884300042
subj01,imgC_1,imagery,C,10,537,538,4,Y,yellow,3,,nsdimagery_subj01_imgC_1.tsv,imgC_1,1,1,9,Y,Y,blank00000_00000000_cueY.png,,,,0.0,1,0,1.0,52.0065866250006,56.0147590339984,,,53.613035503,1606.44887799936
subj01,imgC_1,imagery,C,11,538,539,2,Z,zebra,2,,nsdimagery_subj01_imgC_1.tsv,imgC_1,1,1,9,Z,Z,blank00000_00000000_cueZ.png,,,,0.0,1,0,1.0,56.0147590339984,60.0145216079982,,,57.9307936020014,1916.03456800294
subj01,imgC_1,imagery,C,12,539,540,3,M,mammal,2,,nsdimagery_subj01_imgC_1.tsv,imgC_1,1,1,9,M,M,blank00000_00000000_cueM.png,,,,0.0,1,0,1.0,60.0145216079982,64.0145991120007,,,62.1528425479992,2138.32094000099
subj01,imgC_1,imagery,C,13,540,541,5,N,banana,3,,nsdimagery_subj01_imgC_1.tsv,imgC_1,1,1,9,N,N,blank00000_00000000_cueN.png,,,,0.0,1,0,1.0,64.0145991120007,68.0141612799998,,,66.2108103809987,2196.21126899801
subj01,imgC_1,imagery,C,14,541,542,6,F,fruit,2,,nsdimagery_subj01_imgC_1.tsv,imgC_1,1,1,9,F,F,blank00000_00000000_cueF.png,,,,0.0,1,0,1.0,68.0141612799998,72.0137603219991,,,69.974363598998,1960.2023189982
subj01,imgC_1,imagery,C,15,542,543,2,Z,zebra,3,,nsdimagery_subj01_imgC_1.tsv,imgC_1,1,1,9,Z,Z,blank00000_00000000_cueZ.png,,,,0.0,1,0,1.0,72.0137603219991,76.0139310070008,,,73.9784536970001,1964.69337500093
subj01,imgC_1,imagery,C,16,543,544,6,F,fruit,3,,nsdimagery_subj01_imgC_1.tsv,imgC_1,1,1,9,F,F,blank00000_00000000_cueF.png,,,,0.0,1,0,1.0,76.0139310070008,80.013492834998,,,78.0214796660002,2007.54865899944
subj01,imgC_1,imagery,C,17,544,545,1,S,stripes,3,,nsdimagery_subj01_imgC_1.tsv,imgC_1,1,1,9,S,S,blank00000_00000000_cueS.png,,,,0.0,1,0,1.0,84.0135892979997,88.0135147219989,,,85.9507897389994,1937.20044099973
subj01,imgC_1,imagery,C,18,545,546,3,M,mammal,3,,nsdimagery_subj01_imgC_1.tsv,imgC_1,1,1,9,M,M,blank00000_00000000_cueM.png,,,,,0,0,,88.0135147219989,92.013099765998,,,inf,
subj01,imgC_1,imagery,C,19,546,547,1,S,stripes,4,,nsdimagery_subj01_imgC_1.tsv,imgC_1,1,1,9,S,S,blank00000_00000000_cueS.png,,,,0.0,1,0,1.0,92.013099765998,96.0131052760007,,,93.6423216309995,1629.22186500145
subj01,imgC_1,imagery,C,20,547,548,6,F,fruit,4,,nsdimagery_subj01_imgC_1.tsv,imgC_1,1,1,9,F,F,blank00000_00000000_cueF.png,,,,0.0,1,0,1.0,96.0131052760007,100.019339218001,,,98.0985751510016,2085.46987500085
subj01,imgC_1,imagery,C,21,548,549,4,Y,yellow,4,,nsdimagery_subj01_imgC_1.tsv,imgC_1,1,1,9,Y,Y,blank00000_00000000_cueY.png,,,,0.0,1,0,1.0,100.019339218001,104.020515574,,,101.693443060001,1674.10384200048
subj01,imgC_1,imagery,C,22,549,550,3,M,mammal,4,,nsdimagery_subj01_imgC_1.tsv,imgC_1,1,1,9,M,M,blank00000_00000000_cueM.png,,,,0.0,1,0,1.0,104.020515574,108.019298965999,,,105.594576763,1574.06118899962
subj01,imgC_1,imagery,C,23,550,551,6,F,fruit,5,,nsdimagery_subj01_imgC_1.tsv,imgC_1,1,1,9,F,F,blank00000_00000000_cueF.png,,,,0.0,1,0,1.0,108.019298965999,112.019137592,,,110.344690146001,2325.39118000204
subj01,imgC_1,imagery,C,24,551,552,5,N,banana,4,,nsdimagery_subj01_imgC_1.tsv,imgC_1,1,1,9,N,N,blank00000_00000000_cueN.png,,,,0.0,1,0,1.0,112.019137592,116.020133061,,,113.932667984998,1913.53039299793
subj01,imgC_1,imagery,C,25,552,553,4,Y,yellow,5,,nsdimagery_subj01_imgC_1.tsv,imgC_1,1,1,9,Y,Y,blank00000_00000000_cueY.png,,,,0.0,1,0,1.0,116.020133061,120.020124087001,,,117.718161060999,1698.02799999889
subj01,imgC_1,imagery,C,26,553,554,6,F,fruit,6,,nsdimagery_subj01_imgC_1.tsv,imgC_1,1,1,9,F,F,blank00000_00000000_cueF.png,,,,0.0,1,0,1.0,124.019502411,128.019746908998,,,125.602300906001,1582.79849500104
subj01,imgC_1,imagery,C,27,554,555,2,Z,zebra,4,,nsdimagery_subj01_imgC_1.tsv,imgC_1,1,1,9,Z,Z,blank00000_00000000_cueZ.png,,,,0.0,1,0,1.0,128.019746908998,132.019226949,,,129.699830850001,1680.08394100252
subj01,imgC_1,imagery,C,28,555,556,1,S,stripes,5,,nsdimagery_subj01_imgC_1.tsv,imgC_1,1,1,9,S,S,blank00000_00000000_cueS.png,,,,0.0,1,0,1.0,132.019226949,136.019102631999,,,133.799813221998,1780.58627299833
subj01,imgC_1,imagery,C,29,556,557,4,Y,yellow,6,,nsdimagery_subj01_imgC_1.tsv,imgC_1,1,1,9,Y,Y,blank00000_00000000_cueY.png,,,,0.0,1,0,1.0,136.019102631999,140.019630261999,,,138.070740718002,2051.63808600264
subj01,imgC_1,imagery,C,30,557,558,1,S,stripes,6,,nsdimagery_subj01_imgC_1.tsv,imgC_1,1,1,9,S,S,blank00000_00000000_cueS.png,,,,0.0,1,0,1.0,140.019630261999,144.019201231,,,141.658053864001,1638.42360200215
subj01,imgC_1,imagery,C,31,558,559,2,Z,zebra,5,,nsdimagery_subj01_imgC_1.tsv,imgC_1,1,1,9,Z,Z,blank00000_00000000_cueZ.png,,,,0.0,1,0,1.0,144.019201231,148.018761439002,,,145.897403880001,1878.20264900074
subj01,imgC_1,imagery,C,32,559,560,3,M,mammal,5,,nsdimagery_subj01_imgC_1.tsv,imgC_1,1,1,9,M,M,blank00000_00000000_cueM.png,,,,0.0,1,0,1.0,148.018761439002,152.027126182998,,,149.979362104001,1960.60066499922
subj01,imgC_1,imagery,C,33,560,561,4,Y,yellow,7,,nsdimagery_subj01_imgC_1.tsv,imgC_1,1,1,9,Y,Y,blank00000_00000000_cueY.png,,,,0.0,1,0,1.0,152.027126182998,156.026218192001,,,153.302129814001,1275.00363100262
subj01,imgC_1,imagery,C,34,561,562,1,S,stripes,7,,nsdimagery_subj01_imgC_1.tsv,imgC_1,1,1,9,S,S,blank00000_00000000_cueS.png,,,,0.0,1,0,1.0,156.026218192001,160.035100810001,,,157.408254664999,1382.03647299815
subj01,imgC_1,imagery,C,35,562,563,3,M,mammal,6,,nsdimagery_subj01_imgC_1.tsv,imgC_1,1,1,9,M,M,blank00000_00000000_cueM.png,,,,0.0,1,0,1.0,164.034916575001,168.033777910001,,,166.266781859998,2231.86528499718
subj01,imgC_1,imagery,C,36,563,564,2,Z,zebra,6,,nsdimagery_subj01_imgC_1.tsv,imgC_1,1,1,9,Z,Z,blank00000_00000000_cueZ.png,,,,0.0,1,0,1.0,168.033777910001,172.033757410998,,,169.385834525001,1352.05661500004
subj01,imgC_1,imagery,C,37,564,565,5,N,banana,5,,nsdimagery_subj01_imgC_1.tsv,imgC_1,1,1,9,N,N,blank00000_00000000_cueN.png,,,,0.0,1,0,1.0,172.033757410998,176.03424185,,,173.489649154999,1455.89174400084
subj01,imgC_1,imagery,C,38,565,566,2,Z,zebra,7,,nsdimagery_subj01_imgC_1.tsv,imgC_1,1,1,9,Z,Z,blank00000_00000000_cueZ.png,,,,0.0,1,0,1.0,176.03424185,180.033918023,,,177.670695264998,1636.45341499796
subj01,imgC_1,imagery,C,39,566,567,5,N,banana,6,,nsdimagery_subj01_imgC_1.tsv,imgC_1,1,1,9,N,N,blank00000_00000000_cueN.png,,,,0.0,2,0,1.0,180.033918023,184.033261398999,,,181.492077292998,1458.15926999785
subj01,imgC_1,imagery,C,40,567,568,2,Z,zebra,8,,nsdimagery_subj01_imgC_1.tsv,imgC_1,1,1,9,Z,Z,blank00000_00000000_cueZ.png,,,,0.0,1,0,1.0,184.033261398999,188.033636348999,,,185.422998702001,1389.73730300131
subj01,imgC_1,imagery,C,41,568,569,5,N,banana,7,,nsdimagery_subj01_imgC_1.tsv,imgC_1,1,1,9,N,N,blank00000_00000000_cueN.png,,,,0.0,1,0,1.0,188.033636348999,192.032951001001,,,189.486720989,1453.08464000118
subj01,imgC_1,imagery,C,42,569,570,6,F,fruit,7,,nsdimagery_subj01_imgC_1.tsv,imgC_1,1,1,9,F,F,blank00000_00000000_cueF.png,,,,0.0,1,0,1.0,196.033346345001,200.032781606998,,,197.763901858001,1730.55551300058
subj01,imgC_1,imagery,C,43,570,571,1,S,stripes,8,,nsdimagery_subj01_imgC_1.tsv,imgC_1,1,1,9,S,S,blank00000_00000000_cueS.png,,,,0.0,1,0,1.0,200.032781606998,204.033169471,,,201.315566036999,1282.7844300009
subj01,imgC_1,imagery,C,44,571,572,4,Y,yellow,8,,nsdimagery_subj01_imgC_1.tsv,imgC_1,1,1,9,Y,Y,blank00000_00000000_cueY.png,,,,0.0,1,0,1.0,204.033169471,208.040334621001,,,205.913458462001,1880.28899100027
subj01,imgC_1,imagery,C,45,572,573,5,N,banana,8,,nsdimagery_subj01_imgC_1.tsv,imgC_1,1,1,9,N,N,blank00000_00000000_cueN.png,,,,0.0,1,0,1.0,208.040334621001,212.048653379999,,,209.475596814998,1435.26219399791
subj01,imgC_1,imagery,C,46,573,574,3,M,mammal,7,,nsdimagery_subj01_imgC_1.tsv,imgC_1,1,1,9,M,M,blank00000_00000000_cueM.png,,,,0.0,1,0,1.0,212.048653379999,216.057125604999,,,213.922870680999,1874.21730099959
subj01,imgC_1,imagery,C,47,574,575,6,F,fruit,8,,nsdimagery_subj01_imgC_1.tsv,imgC_1,1,1,9,F,F,blank00000_00000000_cueF.png,,,,0.0,1,0,1.0,216.057125604999,220.057486903999,,,217.325139314999,1268.01370999965
subj01,imgC_1,imagery,C,48,575,576,3,M,mammal,8,,nsdimagery_subj01_imgC_1.tsv,imgC_1,1,1,9,M,M,blank00000_00000000_cueM.png,,,,0.0,1,0,1.0,220.057486903999,224.055884764999,,,221.976335553001,1918.84864900203
subj01,imgA_2,imagery,A,1,576,577,4,L,bar_135.0deg_450L_43W.png,9,/home/jovyan/NHprojectNSDimagery/data/nsd/nsddata/experiments/nsdimagery/rawtargetimages/setA/bar_135.0deg_450L_43W.png,nsdimagery_subj01_imgA_2.tsv,imgA_2,1,1,10,L,L,blank00000_00000000_cueL.png,,,,0.0,1,0,1.0,12.0059137790013,16.0065929940029,,,13.366498757001,1360.58497799968
subj01,imgA_2,imagery,A,2,577,578,3,V,bar_090.0deg_450L_43W.png,9,/home/jovyan/NHprojectNSDimagery/data/nsd/nsddata/experiments/nsdimagery/rawtargetimages/setA/bar_090.0deg_450L_43W.png,nsdimagery_subj01_imgA_2.tsv,imgA_2,1,1,10,V,V,blank00000_00000000_cueV.png,,,,0.0,1,0,1.0,16.0065929940029,20.0051083150029,,,17.1227783450013,1116.18535099842
subj01,imgA_2,imagery,A,3,578,579,2,R,bar_045.0deg_450L_43W.png,9,/home/jovyan/NHprojectNSDimagery/data/nsd/nsddata/experiments/nsdimagery/rawtargetimages/setA/bar_045.0deg_450L_43W.png,nsdimagery_subj01_imgA_2.tsv,imgA_2,1,1,10,R,R,blank00000_00000000_cueR.png,,,,0.0,1,0,1.0,20.0051083150029,24.0061824069999,,,21.0241184820006,1019.01016699776
subj01,imgA_2,imagery,A,4,579,580,4,L,bar_135.0deg_450L_43W.png,10,/home/jovyan/NHprojectNSDimagery/data/nsd/nsddata/experiments/nsdimagery/rawtargetimages/setA/bar_135.0deg_450L_43W.png,nsdimagery_subj01_imgA_2.tsv,imgA_2,1,1,10,L,L,blank00000_00000000_cueL.png,,,,0.0,1,0,1.0,24.0061824069999,28.0048495250012,,,24.8098116740002,803.62926700036
subj01,imgA_2,imagery,A,5,580,581,3,V,bar_090.0deg_450L_43W.png,10,/home/jovyan/NHprojectNSDimagery/data/nsd/nsddata/experiments/nsdimagery/rawtargetimages/setA/bar_090.0deg_450L_43W.png,nsdimagery_subj01_imgA_2.tsv,imgA_2,1,1,10,V,V,blank00000_00000000_cueV.png,,,,0.0,1,0,1.0,28.0048495250012,32.0129116540011,,,28.6693508429998,664.501317998656
subj01,imgA_2,imagery,A,6,581,582,5,P,crs_000.0deg_450L_43W.png,9,/home/jovyan/NHprojectNSDimagery/data/nsd/nsddata/experiments/nsdimagery/rawtargetimages/setA/crs_000.0deg_450L_43W.png,nsdimagery_subj01_imgA_2.tsv,imgA_2,1,1,10,P,P,blank00000_00000000_cueP.png,,,,0.0,1,0,1.0,32.0129116540011,36.013119823001,,,33.1815481500016,1168.63649600054
subj01,imgA_2,imagery,A,7,582,583,3,V,bar_090.0deg_450L_43W.png,11,/home/jovyan/NHprojectNSDimagery/data/nsd/nsddata/experiments/nsdimagery/rawtargetimages/setA/bar_090.0deg_450L_43W.png,nsdimagery_subj01_imgA_2.tsv,imgA_2,1,1,10,V,V,blank00000_00000000_cueV.png,,,,0.0,1,0,1.0,36.013119823001,40.0129573400009,,,36.8625696620002,849.449838999135
subj01,imgA_2,imagery,A,8,583,584,2,R,bar_045.0deg_450L_43W.png,10,/home/jovyan/NHprojectNSDimagery/data/nsd/nsddata/experiments/nsdimagery/rawtargetimages/setA/bar_045.0deg_450L_43W.png,nsdimagery_subj01_imgA_2.tsv,imgA_2,1,1,10,R,R,blank00000_00000000_cueR.png,,,,0.0,1,0,1.0,40.0129573400009,44.0121040320009,,,40.9077364330005,894.77909299967
subj01,imgA_2,imagery,A,9,584,585,1,H,bar_000.0deg_450L_43W.png,9,/home/jovyan/NHprojectNSDimagery/data/nsd/nsddata/experiments/nsdimagery/rawtargetimages/setA/bar_000.0deg_450L_43W.png,nsdimagery_subj01_imgA_2.tsv,imgA_2,1,1,10,H,H,blank00000_00000000_cueH.png,,,,0.0,1,0,1.0,48.013335691001,52.0118574440021,,,48.9593723510006,946.036659999663
subj01,imgA_2,imagery,A,10,585,586,2,R,bar_045.0deg_450L_43W.png,11,/home/jovyan/NHprojectNSDimagery/data/nsd/nsddata/experiments/nsdimagery/rawtargetimages/setA/bar_045.0deg_450L_43W.png,nsdimagery_subj01_imgA_2.tsv,imgA_2,1,1,10,R,R,blank00000_00000000_cueR.png,,,,0.0,1,0,1.0,52.0118574440021,56.013467257002,,,53.0462571040007,1034.3996599986
subj01,imgA_2,imagery,A,11,586,587,3,V,bar_090.0deg_450L_43W.png,12,/home/jovyan/NHprojectNSDimagery/data/nsd/nsddata/experiments/nsdimagery/rawtargetimages/setA/bar_090.0deg_450L_43W.png,nsdimagery_subj01_imgA_2.tsv,imgA_2,1,1,10,V,V,blank00000_00000000_cueV.png,,,,0.0,1,0,1.0,56.013467257002,60.0116644430018,,,56.6965178880018,683.050630999787
subj01,imgA_2,imagery,A,12,587,588,6,E,crs_045.0deg_450L_43W.png,9,/home/jovyan/NHprojectNSDimagery/data/nsd/nsddata/experiments/nsdimagery/rawtargetimages/setA/crs_045.0deg_450L_43W.png,nsdimagery_subj01_imgA_2.tsv,imgA_2,1,1,10,E,E,blank00000_00000000_cueE.png,,,,0.0,1,0,1.0,60.0116644430018,64.0132213220022,,,61.4266133190031,1414.94887600129
subj01,imgA_2,imagery,A,13,588,589,2,R,bar_045.0deg_450L_43W.png,12,/home/jovyan/NHprojectNSDimagery/data/nsd/nsddata/experiments/nsdimagery/rawtargetimages/setA/bar_045.0deg_450L_43W.png,nsdimagery_subj01_imgA_2.tsv,imgA_2,1,1,10,R,R,blank00000_00000000_cueR.png,,,,0.0,1,0,1.0,64.0132213220022,68.0140301020001,,,65.6924379480006,1679.21662599838
subj01,imgA_2,imagery,A,14,589,590,3,V,bar_090.0deg_450L_43W.png,13,/home/jovyan/NHprojectNSDimagery/data/nsd/nsddata/experiments/nsdimagery/rawtargetimages/setA/bar_090.0deg_450L_43W.png,nsdimagery_subj01_imgA_2.tsv,imgA_2,1,1,10,V,V,blank00000_00000000_cueV.png,,,,0.0,1,0,1.0,68.0140301020001,72.0198450490025,,,69.2270526310022,1213.02252900205
subj01,imgA_2,imagery,A,15,590,591,4,L,bar_135.0deg_450L_43W.png,11,/home/jovyan/NHprojectNSDimagery/data/nsd/nsddata/experiments/nsdimagery/rawtargetimages/setA/bar_135.0deg_450L_43W.png,nsdimagery_subj01_imgA_2.tsv,imgA_2,1,1,10,L,L,blank00000_00000000_cueL.png,,,,0.0,1,0,1.0,72.0198450490025,76.0277865509997,,,73.0828831170002,1063.0380679977
subj01,imgA_2,imagery,A,16,591,592,6,E,crs_045.0deg_450L_43W.png,10,/home/jovyan/NHprojectNSDimagery/data/nsd/nsddata/experiments/nsdimagery/rawtargetimages/setA/crs_045.0deg_450L_43W.png,nsdimagery_subj01_imgA_2.tsv,imgA_2,1,1,10,E,E,blank00000_00000000_cueE.png,,,,0.0,1,0,1.0,76.0277865509997,80.0273089420007,,,77.5641820609999,1536.39551000015
subj01,imgA_2,imagery,A,17,592,593,5,P,crs_000.0deg_450L_43W.png,10,/home/jovyan/NHprojectNSDimagery/data/nsd/nsddata/experiments/nsdimagery/rawtargetimages/setA/crs_000.0deg_450L_43W.png,nsdimagery_subj01_imgA_2.tsv,imgA_2,1,1,10,P,P,blank00000_00000000_cueP.png,,,,0.0,1,0,1.0,80.0273089420007,84.027727834,,,81.9577135500003,1930.40460799966
subj01,imgA_2,imagery,A,18,593,594,1,H,bar_000.0deg_450L_43W.png,10,/home/jovyan/NHprojectNSDimagery/data/nsd/nsddata/experiments/nsdimagery/rawtargetimages/setA/bar_000.0deg_450L_43W.png,nsdimagery_subj01_imgA_2.tsv,imgA_2,1,1,10,H,H,blank00000_00000000_cueH.png,,,,0.0,1,0,1.0,88.030788,92.0310141959999,,,89.5273499280011,1496.56192800103
subj01,imgA_2,imagery,A,19,594,595,6,E,crs_045.0deg_450L_43W.png,11,/home/jovyan/NHprojectNSDimagery/data/nsd/nsddata/experiments/nsdimagery/rawtargetimages/setA/crs_045.0deg_450L_43W.png,nsdimagery_subj01_imgA_2.tsv,imgA_2,1,1,10,E,E,blank00000_00000000_cueE.png,,,,0.0,2,0,1.0,92.0310141959999,96.0352433059998,,,94.0268833480004,1995.86915200052
subj01,imgA_2,imagery,A,20,595,596,4,L,bar_135.0deg_450L_43W.png,12,/home/jovyan/NHprojectNSDimagery/data/nsd/nsddata/experiments/nsdimagery/rawtargetimages/setA/bar_135.0deg_450L_43W.png,nsdimagery_subj01_imgA_2.tsv,imgA_2,1,1,10,L,L,blank00000_00000000_cueL.png,,,,0.0,1,0,1.0,96.0352433059998,100.034917042001,,,97.7675558050032,1732.31249900346
subj01,imgA_2,imagery,A,21,596,597,6,E,crs_045.0deg_450L_43W.png,12,/home/jovyan/NHprojectNSDimagery/data/nsd/nsddata/experiments/nsdimagery/rawtargetimages/setA/crs_045.0deg_450L_43W.png,nsdimagery_subj01_imgA_2.tsv,imgA_2,1,1,10,E,E,blank00000_00000000_cueE.png,,,,0.0,1,0,1.0,100.034917042001,104.034701022003,,,101.781011506002,1746.09446400063
subj01,imgA_2,imagery,A,22,597,598,4,L,bar_135.0deg_450L_43W.png,13,/home/jovyan/NHprojectNSDimagery/data/nsd/nsddata/experiments/nsdimagery/rawtargetimages/setA/bar_135.0deg_450L_43W.png,nsdimagery_subj01_imgA_2.tsv,imgA_2,1,1,10,L,L,blank00000_00000000_cueL.png,,,,0.0,1,0,1.0,104.034701022003,108.034108004002,,,105.942886364002,1908.18534199934
subj01,imgA_2,imagery,A,23,598,599,6,E,crs_045.0deg_450L_43W.png,13,/home/jovyan/NHprojectNSDimagery/data/nsd/nsddata/experiments/nsdimagery/rawtargetimages/setA/crs_045.0deg_450L_43W.png,nsdimagery_subj01_imgA_2.tsv,imgA_2,1,1,10,E,E,blank00000_00000000_cueE.png,,,,0.0,1,0,1.0,108.034108004002,112.042474627,,,110.589995030001,2555.88702599925
subj01,imgA_2,imagery,A,24,599,600,1,H,bar_000.0deg_450L_43W.png,11,/home/jovyan/NHprojectNSDimagery/data/nsd/nsddata/experiments/nsdimagery/rawtargetimages/setA/bar_000.0deg_450L_43W.png,nsdimagery_subj01_imgA_2.tsv,imgA_2,1,1,10,H,H,blank00000_00000000_cueH.png,,,,0.0,1,0,1.0,112.042474627,116.042882097001,,,113.240346324001,1197.87169700066
subj01,imgA_2,imagery,A,25,600,601,6,E,crs_045.0deg_450L_43W.png,14,/home/jovyan/NHprojectNSDimagery/data/nsd/nsddata/experiments/nsdimagery/rawtargetimages/setA/crs_045.0deg_450L_43W.png,nsdimagery_subj01_imgA_2.tsv,imgA_2,1,1,10,E,E,blank00000_00000000_cueE.png,,,,0.0,1,0,1.0,120.042629663003,124.042294399002,,,121.811765545001,1769.1358819975
subj01,imgA_2,imagery,A,26,601,602,1,H,bar_000.0deg_450L_43W.png,12,/home/jovyan/NHprojectNSDimagery/data/nsd/nsddata/experiments/nsdimagery/rawtargetimages/setA/bar_000.0deg_450L_43W.png,nsdimagery_subj01_imgA_2.tsv,imgA_2,1,1,10,H,H,blank00000_00000000_cueH.png,,,,0.0,1,0,1.0,124.042294399002,128.041629269002,,,125.603547852003,1561.25345300097
subj01,imgA_2,imagery,A,27,602,603,5,P,crs_000.0deg_450L_43W.png,11,/home/jovyan/NHprojectNSDimagery/data/nsd/nsddata/experiments/nsdimagery/rawtargetimages/setA/crs_000.0deg_450L_43W.png,nsdimagery_subj01_imgA_2.tsv,imgA_2,1,1,10,P,P,blank00000_00000000_cueP.png,,,,0.0,1,0,1.0,128.041629269002,132.048977860002,,,129.663826485001,1622.19721599831
subj01,imgA_2,imagery,A,28,603,604,6,E,crs_045.0deg_450L_43W.png,15,/home/jovyan/NHprojectNSDimagery/data/nsd/nsddata/experiments/nsdimagery/rawtargetimages/setA/crs_045.0deg_450L_43W.png,nsdimagery_subj01_imgA_2.tsv,imgA_2,1,1,10,E,E,blank00000_00000000_cueE.png,,,,0.0,1,0,1.0,132.048977860002,136.049517364001,,,133.358040643001,1309.06278299881
subj01,imgA_2,imagery,A,29,604,605,2,R,bar_045.0deg_450L_43W.png,13,/home/jovyan/NHprojectNSDimagery/data/nsd/nsddata/experiments/nsdimagery/rawtargetimages/setA/bar_045.0deg_450L_43W.png,nsdimagery_subj01_imgA_2.tsv,imgA_2,1,1,10,R,R,blank00000_00000000_cueR.png,,,,0.0,1,0,1.0,136.049517364001,140.058095004002,,,136.949912431002,900.395067001227
subj01,imgA_2,imagery,A,30,605,606,1,H,bar_000.0deg_450L_43W.png,13,/home/jovyan/NHprojectNSDimagery/data/nsd/nsddata/experiments/nsdimagery/rawtargetimages/setA/bar_000.0deg_450L_43W.png,nsdimagery_subj01_imgA_2.tsv,imgA_2,1,1,10,H,H,blank00000_00000000_cueH.png,,,,0.0,1,0,1.0,140.058095004002,144.057984873001,,,141.085445357003,1027.35035300066
subj01,imgA_2,imagery,A,31,606,607,4,L,bar_135.0deg_450L_43W.png,14,/home/jovyan/NHprojectNSDimagery/data/nsd/nsddata/experiments/nsdimagery/rawtargetimages/setA/bar_135.0deg_450L_43W.png,nsdimagery_subj01_imgA_2.tsv,imgA_2,1,1,10,L,L,blank00000_00000000_cueL.png,,,,0.0,1,0,1.0,144.057984873001,148.058096190001,,,144.899937182003,841.952309001499
subj01,imgA_2,imagery,A,32,607,608,5,P,crs_000.0deg_450L_43W.png,12,/home/jovyan/NHprojectNSDimagery/data/nsd/nsddata/experiments/nsdimagery/rawtargetimages/setA/crs_000.0deg_450L_43W.png,nsdimagery_subj01_imgA_2.tsv,imgA_2,1,1,10,P,P,blank00000_00000000_cueP.png,,,,0.0,1,0,1.0,148.058096190001,152.065458879002,,,148.873615573,815.5193829989
subj01,imgA_2,imagery,A,33,608,609,3,V,bar_090.0deg_450L_43W.png,14,/home/jovyan/NHprojectNSDimagery/data/nsd/nsddata/experiments/nsdimagery/rawtargetimages/setA/bar_090.0deg_450L_43W.png,nsdimagery_subj01_imgA_2.tsv,imgA_2,1,1,10,V,V,blank00000_00000000_cueV.png,,,,1.0,1,1,1.0,152.065458879002,156.065923979,,,155.1359801,3070.52122099776
subj01,imgA_2,imagery,A,34,609,610,1,H,bar_000.0deg_450L_43W.png,14,/home/jovyan/NHprojectNSDimagery/data/nsd/nsddata/experiments/nsdimagery/rawtargetimages/setA/bar_000.0deg_450L_43W.png,nsdimagery_subj01_imgA_2.tsv,imgA_2,1,1,10,H,H,blank00000_00000000_cueH.png,,,,0.0,1,0,1.0,160.065680538002,164.065130735002,,,161.509150011003,1443.46947300073
subj01,imgA_2,imagery,A,35,610,611,5,P,crs_000.0deg_450L_43W.png,13,/home/jovyan/NHprojectNSDimagery/data/nsd/nsddata/experiments/nsdimagery/rawtargetimages/setA/crs_000.0deg_450L_43W.png,nsdimagery_subj01_imgA_2.tsv,imgA_2,1,1,10,P,P,blank00000_00000000_cueP.png,,,,0.0,1,0,1.0,164.065130735002,168.064852964002,,,165.363985524,1298.85478899814
subj01,imgA_2,imagery,A,36,611,612,4,L,bar_135.0deg_450L_43W.png,15,/home/jovyan/NHprojectNSDimagery/data/nsd/nsddata/experiments/nsdimagery/rawtargetimages/setA/bar_135.0deg_450L_43W.png,nsdimagery_subj01_imgA_2.tsv,imgA_2,1,1,10,L,L,blank00000_00000000_cueL.png,,,,0.0,1,0,1.0,168.064852964002,172.067084877002,,,169.894546238,1829.69327399769
subj01,imgA_2,imagery,A,37,612,613,3,V,bar_090.0deg_450L_43W.png,15,/home/jovyan/NHprojectNSDimagery/data/nsd/nsddata/experiments/nsdimagery/rawtargetimages/setA/bar_090.0deg_450L_43W.png,nsdimagery_subj01_imgA_2.tsv,imgA_2,1,1,10,V,V,blank00000_00000000_cueV.png,,,,0.0,1,0,1.0,172.067084877002,176.072747171002,,,173.685267339002,1618.18246199982
subj01,imgA_2,imagery,A,38,613,614,2,R,bar_045.0deg_450L_43W.png,14,/home/jovyan/NHprojectNSDimagery/data/nsd/nsddata/experiments/nsdimagery/rawtargetimages/setA/bar_045.0deg_450L_43W.png,nsdimagery_subj01_imgA_2.tsv,imgA_2,1,1,10,R,R,blank00000_00000000_cueR.png,,,,0.0,1,0,1.0,176.072747171002,180.072884769001,,,177.591311139,1518.56396799849
subj01,imgA_2,imagery,A,39,614,615,1,H,bar_000.0deg_450L_43W.png,15,/home/jovyan/NHprojectNSDimagery/data/nsd/nsddata/experiments/nsdimagery/rawtargetimages/setA/bar_000.0deg_450L_43W.png,nsdimagery_subj01_imgA_2.tsv,imgA_2,1,1,10,H,H,blank00000_00000000_cueH.png,,,,0.0,1,0,1.0,180.072884769001,184.072624226003,,,181.789395245003,1716.51047600244
subj01,imgA_2,imagery,A,40,615,616,4,L,bar_135.0deg_450L_43W.png,16,/home/jovyan/NHprojectNSDimagery/data/nsd/nsddata/experiments/nsdimagery/rawtargetimages/setA/bar_135.0deg_450L_43W.png,nsdimagery_subj01_imgA_2.tsv,imgA_2,1,1,10,L,L,blank00000_00000000_cueL.png,,,,0.0,1,0,1.0,184.072624226003,188.072585605001,,,185.960426295002,1887.80206899901
